IncomingTrackId,std_accX_end,mean_accX_end,median_accX_end,max_angleX_diff
4184792,0.158197713,-0.078945505,-0.043441772,52.08617978
4184794,0.053458895,0.129676125,0.125991821,7.136722767
4184799,0,8.424301147,8.424301147,0
4184801,0.175632347,0.094857478,0.086151123,71.66014317
4184817,0.312484934,0.180600972,0.300331116,89.79149236
4184818,0.180455101,-0.192070197,-0.187057495,51.95027201
4184826,0.261170451,-0.119286855,-0.034156799,66.737901
4184831,0.302943779,0.080599858,-0.105300903,25.4963716
4184834,0.753134984,-0.584994064,-0.4818331,40.21174489
4184835,0.285663816,-0.063073194,-0.053611755,88.4262465
4184840,0,4.127746582,4.127746582,0
4184843,0.040060598,0.098712639,0.101020813,19.14441005
4184844,0,-10.14933109,-10.14933109,0
4184849,0.15354773,-0.040485632,-0.024276733,78.74379994
4184850,0.420902356,-8.485309902,-8.533195496,0.743013081
4184851,0.232866204,0.117349085,0.094573975,86.85088422
4184853,0.486012205,0.156214006,0.242774963,68.26998456
4184865,0,-1.491577148,-1.491577148,0
4184868,0.131648403,-0.078444417,-0.089660645,40.09473644
4184872,0.024582373,-0.107469559,-0.105293274,1.970833536
4184878,0.162088663,0.11117795,0.119659424,83.88173045
4184879,0.263146273,0.04573486,0.019638062,89.80615527
4184880,0.444768501,-0.118371712,-0.000946045,75.61405054
4184887,0,-0.599747539,-0.599747539,0
4184888,0,-0.401028782,-0.401028782,0
4184890,0.193378698,-0.145354106,-0.200630188,70.17142677
4184894,1.657984734,1.41018486,1.41018486,0
4184901,0.275646525,0.438722839,0.558013916,49.77473216
4184909,0.631842886,-0.053285466,-0.157157898,65.46074546
4184913,0.508209301,-0.140683059,-0.099090576,85.78319683
4184916,0.244101187,0.130288842,0.092926025,88.45558671
4184920,0,6.179623127,6.179623127,0
4184924,0.3339792,-0.553976737,-0.652748108,74.09995361
4184926,0,0.458999991,0.458999991,0
4184931,0.363318085,0.052454331,0.155441284,64.83941257
4184944,0,-0.524330199,-0.524330199,0
4184946,0.195623111,0.061683888,0.047172546,88.5364831
4184950,0.530793102,0.149270462,0.036010742,60.8128995
4184954,0,0.13508606,0.13508606,0
4184955,0.312053862,0.666445134,0.680656433,86.43971227
4184958,0.219155461,0.929734353,0.921630859,24.87827215
4184960,0.667969362,-0.266811689,-0.079605103,88.71053091
4184964,0.22918597,-0.956997666,-0.96786499,15.63035385
4184966,0.245506616,0.552339281,0.575027466,54.68308998
4184970,0.259205537,0.143163726,0.074264526,86.89311229
4184976,0.30945173,0.02528094,0.011566162,79.45252799
4184977,0.251469406,0.020430638,-0.018608093,86.25066092
4184980,0.241738727,-0.220481083,-0.15096283,83.95024504
4184983,0.301986505,-0.277552911,-0.239105225,84.15747365
4184988,0.526225964,0.030335343,-0.041847229,88.44725035
4184995,0.012950708,-0.029546102,-0.028686523,2.127932905
4185006,0.383169931,0.058177649,-0.01574707,89.86802259
4185009,0.224255093,0.9262115,0.962814331,41.80416527
4185018,0.285612857,0.070534795,-0.010787964,70.92983563
4185020,3.501415291,-5.114613373,-7.217320919,51.17938602
4185021,0.67046732,-0.079088752,-0.024490356,80.62105227
4185028,0,-0.019592285,-0.019592285,0
4185038,0.240530106,0.041128021,0.100006104,87.37489431
4185047,0.454538425,-0.134971351,0.00680542,84.88105846
4185048,0.436950869,0.208935781,0.069595337,83.18136214
4185054,4.528998503,4.792119344,7.76499939,44.91920087
4185058,3.853447473,3.21898378,0.77204895,44.83208455
4185059,0.216912649,-0.073344275,-0.133148193,89.67528169
4185063,0.212991684,-0.048580045,-0.064231873,89.41571477
4185064,0.011378994,-0.86242965,-0.863113403,2.739057798
4185068,0.289729282,-0.031605546,0.077987671,75.15033876
4185070,0.033277624,0.831409801,0.834472656,1.748338092
4185075,0.492889233,-0.009140237,-0.09122467,88.92048556
4185077,0.07730357,0.037085096,0.032592773,41.06840789
4185078,0,1.378999949,1.378999949,0
4185084,0.47810759,0.299551469,0.153991699,50.98825131
4185085,0.395908197,0.146670391,0.030944824,89.32895259
4185086,0.389739788,0.047403852,0.025024414,89.36931094
4185089,0.390564275,0.13376737,0.014541626,87.20160144
4185090,0.286373689,0.012759655,-0.001174927,89.32895259
4185091,0.365740325,0.111273944,0.038619995,87.94413583
4185095,0.405665675,-0.252561696,-0.058021545,41.7871203
4185099,0.277437594,-0.008139374,0.011039734,62.0288596
4185100,0.206096209,0.116318042,0.019577026,72.51772345
4185110,0.492282837,0.391604531,0.476654053,72.06869245
4185111,0.28416434,0.061543922,-0.03678894,89.89515909
4185115,0,-2.948999882,-2.948999882,0
4185116,0.039777691,0.920605746,0.93951416,0.613639399
4185119,1.840555061,-0.590067044,0.182556152,82.94607343
4185123,1.629839078,-1.782369128,-0.9672575,20.17378785
4185124,4.651562624,3.743021307,0.004274011,9.431465714
4185126,0.464555075,0.703544304,0.810180664,86.49376642
4185138,0.630784179,0.495281337,0.781723022,68.86577212
4185140,0.260341815,-0.206766448,-0.134048462,33.06133149
4185143,0.169884252,0.225608692,0.268310547,12.34035932
4185144,0.360850034,0.49969205,0.320266724,77.78747834
4185161,0.19103241,-0.19103241,-0.19103241,0
4185165,0.137003428,-0.070729418,-0.069534302,87.88327012
4185166,0.338271765,0.268382152,0.111846924,71.86995173
4185171,0.44170474,-0.290277421,-0.430297852,82.75722324
4185174,0,0.069442749,0.069442749,0
4185179,0.352882698,0.122092629,0.048095703,89.06883998
4185183,0.542710369,-0.192387276,-0.029495239,89.43723088
4185186,0.076848389,0.548854034,0.551040649,9.794305987
4185188,1.282378423,-9.6047032,-9.560646057,16.53898868
4185195,0.009100271,-0.008086355,-0.004730225,1.683668262
4185196,0.415707337,-0.185441309,-0.240234375,89.19271709
4185197,0.028025884,0.078041077,0.067749023,3.969319771
4185198,1.64510619,2.262857564,2.244422913,49.77038743
4185202,6.009001921,4.151702598,6.999008179,80.37820307
4185205,0.332470515,-0.004961294,0.083602905,88.96368168
4185219,0.439805847,-0.173908798,-0.061141968,85.16125488
4185236,0.20024506,0.278724075,0.258056641,87.61585747
4185238,1.212803051,5.213475007,4.75,6.826119374
4185239,0.419518565,-0.092788131,-0.030784607,88.40433466
4185241,0.602793151,9.585512985,9.783905029,3.770032413
4185242,0.017489459,0.060038567,0.064186096,3.655320205
4185249,1.428116543,-0.442342255,-0.202316225,11.5360085
4185255,0.208030804,-0.151471472,-0.164428711,88.93673786
4185256,0.005719025,0.145810894,0.146499634,0.830629746
4185260,0.16447992,0.108776811,0.167312622,47.04638766
4185262,0.462770167,0.643898479,0.706390381,89.52894359
4185263,3.406453948,4.888978314,5.270834923,89.31640444
4185264,0,-5.886260986,-5.886260986,0
4185265,2.512432085,-0.742829878,-0.005985504,70.7366447
4185279,0.304131907,-0.081560053,-0.019317627,82.60870423
4185283,0.165759692,-0.884193907,-0.902770996,14.62920719
4185290,0,4.079727173,4.079727173,0
4185301,0.172489631,0.081303218,0.114707947,84.19887183
4185303,0.168422386,0.030740207,-0.026672363,89.73378608
4185339,0.054527389,-0.963801837,-0.961120605,3.571762646
4185345,0.329264217,0.013340146,0.039154053,89.6000828
4185351,0.411676096,0.405942119,0.38483429,86.95015828
4185352,0.246350425,0.007022332,-0.010192871,87.77949287
4185361,0.031588826,-0.083587646,-0.076034546,4.425983784
4185362,0.180340863,0.193539612,0.174003601,85.08365575
4185364,0.11104621,0.019090948,0.005310059,44.58371034
4185367,0.292866821,-0.37897975,-0.515625,24.8658787
4185370,0.214118324,-0.040051296,0.017868042,45.34956277
4185371,1.79505328,0.26547421,0.461482376,88.43020829
4185372,0.409408569,-8.140014648,-8.140014648,0.939454312
4185374,0.238036521,-0.039239361,-0.030212402,89.91299791
4185376,0.220934098,-0.010228666,0.001190186,78.51512275
4185378,0.166187262,0.070717005,0.023796082,82.97881406
4185388,0.046903648,-0.094197591,-0.114364624,4.865709823
4185391,0.178104057,-0.497616053,-0.508773804,37.36606845
4185401,0.316843745,0.195821191,0.216293335,89.08179786
4185402,0.284404203,-0.112733324,-0.16418457,89.50944927
4185407,0,0.030654907,0.030654907,0
4185408,0.510496393,-0.372301529,-0.020370483,83.80299907
4185409,0.323919782,0.055553992,0.274200439,86.26110166
4185420,0,-1.771709204,-1.771709204,0
4185422,0.029511914,-0.173425674,-0.172592163,2.902024522
4185426,8.142124501,-3.563979988,-4.950999975,85.3111824
4185427,0.39664612,-9.191767965,-9.123703957,0.973625023
4185436,0.370689792,0.206769866,0.125137329,63.63253552
4185439,0.098735945,-0.003655616,-0.002105713,85.02739008
4185441,0,0.16879122,0.16879122,0
4185443,0.097102809,-0.159286499,-0.186393738,15.82839786
4185446,0,-0.269638062,-0.269638062,0
4185449,0.340780037,-0.428016395,-0.40776825,65.46627951
4185454,0.424424801,0.800989772,0.89793396,81.01057819
4185458,0.189727879,-0.291615804,-0.331665039,41.29965023
4185461,0.24660592,-0.936084395,-0.97353363,77.34595864
4185464,0.287867471,-0.287837121,-0.191802979,88.23379443
4185470,0.326782505,0.154010401,0.242553711,55.86555929
4185471,0.272546049,-0.054737278,-0.111740112,77.18213355
4185472,0.311373106,-0.237207216,-0.22946167,79.18674518
4185479,0.439773369,-0.465516267,-0.61856842,78.61284016
4185480,0.360980726,-0.169597714,-0.067428589,40.44456899
4185482,0.046371491,-0.865632274,-0.867416382,7.190343288
4185483,3.201764277,2.147277502,3.754108191,51.03446409
4185487,0.296412435,0.278366277,0.391410828,89.39497359
4185490,0.387382511,0.679986534,0.851341248,50.71731354
4185494,1.102991134,0.26223494,0.431915283,48.10812505
4185495,0,-0.704742432,-0.704742432,0
4185496,2.897321847,-1.29455373,0.001197101,39.05804695
4185498,1.194524022,-0.20875678,-1.082087994,7.233380915
4185499,0.059310119,0.168955356,0.15524292,30.55182411
4185506,0,-0.344000012,-0.344000012,0
4185508,0.587014537,-0.241981208,0.055053711,49.43877268
4185519,0.245007309,1.095347285,1.22822547,6.924421407
4185527,0.228315918,-0.016366344,-0.03578949,88.124214
4185528,0,-1.915359497,-1.915359497,0
4185543,0.791865442,-0.038007972,0.09147644,77.56954861
4185544,0.176524132,0.407247285,0.448600769,76.99658868
4185545,0.442425364,-0.27421284,-0.15776062,89.63596316
4185547,0.61882249,0.283453955,0.281188965,87.81055985
4185549,0.583253721,-0.703600589,-0.829391479,78.96241799
4185550,0.326008355,-0.073135866,0.020294189,56.76505534
4185552,0.467792231,-0.446153309,-0.43106842,83.32935146
4185565,0,0.050460815,0.050460815,0
4185568,0.222156834,0.216490649,0.134872437,87.88563354
4185569,0.218058859,0.280316208,0.257583618,76.7161732
4185572,0.296316605,-0.147514398,-0.150817871,21.05172515
4185576,0.188221381,-0.040668037,-0.02205658,69.0693272
4185578,0.453583245,0.391905729,0.594070435,43.27630801
4185584,3.55381629,-0.379866178,0.283114344,78.49322624
4185587,0.038750622,-0.687672542,-0.684570313,4.582823574
4185597,1.755583367,1.120038546,1.644866824,82.26115869
4185598,0,-2.394201756,-2.394201756,0
4185599,3.966176786,-4.041596595,-5.926846266,29.37188317
4185602,0.274345444,0.064701886,0.042297363,54.68051355
4185610,0.245205726,0.187763603,0.016975403,84.21626081
4185612,0.378771941,-0.041244025,-0.142501831,89.98437827
4185620,0.153166423,0.255519274,0.234382629,33.56786833
4185623,0.171529981,0.147755809,0.140602112,86.23521693
4185624,0.215195906,0.156628634,0.150680542,87.0660328
4185626,0.382412935,0.075244205,0.07434845,89.7965926
4185628,0.122897933,0.106329028,0.119194031,30.61454555
4185634,0.135109625,0.17325452,0.181793213,78.14016065
4185635,0.280796925,-0.138590544,-0.084152222,89.63865
4185641,0.589127785,-0.001008705,0.095352173,57.05531302
4185647,0.390198952,-0.206670125,-0.014511108,44.2746353
4185659,0.203032371,-0.606549621,-0.557866037,4.586256174
4185672,0.608973568,4.454070227,4.637568474,5.163456387
4185673,2.309048134,1.968468406,2.456451416,46.86206234
4185675,0.3008424,0.147627818,0.072349548,85.53420735
4185678,0.339731651,-0.081255292,-0.166534424,89.1529635
4185682,0.011870141,0.018301558,0.017547607,34.15295975
4185687,0.177082782,0.180713622,0.111099243,79.19728154
4185691,1.017242578,0.231758731,0.316034615,21.42017557
4185693,0.197348178,-0.081169619,-0.133766174,88.04413613
4185694,0.335530107,0.086953566,0.033691406,80.13568868
4185695,0.202837624,-0.014380383,-0.015060425,89.99808622
4185697,5.357306694,-7.108872954,-7.531555176,89.78614252
4185698,0.040680075,-0.4672966,-0.486724854,1.31752553
4185716,0.023451217,-0.961798575,-0.961334229,1.48491199
4185718,0.34099503,0.167557301,0.098831177,85.39907272
4185723,0.417553756,-1.420958706,-1.138442874,8.43948639
4185725,0.298955152,0.313628395,0.341751099,75.83959875
4185727,0.118150929,-0.959911055,-0.975234985,33.36391743
4185729,1.599143105,4.611617642,4.361999989,11.9602101
4185730,0.182558869,0.252755672,0.264060974,87.06550632
4185733,0.287286272,0.149550973,0.201828003,88.24709558
4185735,0.268107831,0.963666184,1.021126986,2.616653176
4185736,0.185540207,-0.104799992,-0.106918335,88.0478164
4185751,0.422769584,0.095293235,0.004760742,72.12726875
4185752,0.25950787,0.230218506,0.191864014,0
4185754,0.190893343,-0.064537516,-0.084945679,89.00927825
4185756,0.008414886,-0.081522624,-0.082489014,0.20677964
4185761,0.458275405,0.559529941,0.90852356,57.6806688
4185773,2.786444415,-0.092285565,0.331596941,2.218515045
4185774,0.049175159,-0.102612813,-0.10218811,14.51427262
4185777,0.39062378,-0.301478888,-0.380653381,54.32189551
4185779,0.285716873,0.137216666,0.16519165,87.753931
4185781,2.217305897,9.306806946,9.013275146,7.889014859
4185782,0,0.120056152,0.120056152,0
4185785,0.166550836,0.061087824,0.080101013,74.92039229
4185789,0.33401707,-0.2828315,-0.488204956,71.27201447
4185794,0.35175445,0.06304644,0.011734009,89.7653786
4185799,0.143918307,0.024313222,0.005966187,34.91099974
4185814,0,0.287304193,0.287304193,0
4185815,0.182922596,-0.136213784,-0.122833252,88.06925333
4185818,0.025934548,0.020241719,0.01965332,9.820737314
4185827,0.392761109,-0.476899492,-0.769714355,19.06046563
4185843,2.831720837,-1.107557315,-2.001556396,83.42969274
4185848,0.49305905,0.083157959,0.019874573,88.56155794
4185853,3.177185352,-1.575355981,-0.866701007,89.85221957
4185856,0.456400831,0.366619514,-0.00617218,19.76476116
4185857,0.101773348,-0.444504667,-0.454772949,41.79636656
4185859,0,0.255905151,0.255905151,0
4185870,0.464860507,0.335636012,0.264915466,60.17229259
4185876,0.244383251,0.047973697,-0.010925293,89.7219414
4185878,0.206754326,-0.047789781,-0.109062195,86.99684071
4185881,0.435324698,-0.25740156,-0.388847351,86.39817579
4185885,0.024807495,0.059907277,0.056655884,15.71957325
4185886,0.48913548,0.288153507,0.425094604,88.14088304
4185898,0.3057752,0.285643834,0.233261108,88.81302472
4185902,0.134439348,-0.207118108,-0.179016113,21.12023479
4185903,0.404057852,0.023348637,0.062522888,80.52016925
4185916,0.459756333,0.406700943,0.372131348,63.56557545
4185918,0.468859172,-0.086488402,-0.012008667,71.24162722
4185919,0,-0.011413574,-0.011413574,0
4185920,0.303685927,-0.18453992,-0.276733398,87.95667778
4185927,0.342132818,0.437363857,0.577972412,82.11060724
4185934,0.293285138,-0.01623696,-0.007385254,88.4963845
4185943,3.056349599,5.615360819,7.426813602,31.61542369
4185946,0.220030842,-0.041805124,-0.019714355,87.76718961
4185947,0.277285231,0.125991013,0.008453369,71.19333102
4185953,0.383374275,0.070520152,-0.000289917,89.85175521
4185955,0.24666304,-0.222825859,-0.275619507,87.25200374
4185963,0.338852161,-0.368449443,-0.388298035,89.84115689
4185967,0.355122066,-0.377447576,-0.418266296,45.22225541
4185971,0.222408376,-0.055876087,-0.081108093,88.52523232
4185981,0.437810416,0.578540604,0.379480958,13.75960684
4185982,6.487931022,2.859562209,0.57223168,67.83862115
4185985,0.321897597,0.023086323,0.015487671,89.02912613
4185987,0.344880644,0.557678245,0.512374818,22.35464684
4185988,0.209763373,-0.041207149,0.006790161,27.54922174
4185991,0.194173873,0.176484574,0.153244019,79.86845056
4185999,0,-4.811386108,-4.811386108,0
4186000,0.128926511,0.349146916,0.320297241,74.1062593
4186001,0.405827028,0.01977226,0.059082031,85.57009932
4186004,1.570596278,-0.229843318,-0.229843318,17.06098888
4186005,2.328029758,1.024034311,1.172546387,89.56151892
4186006,0.095479367,0.122051471,0.14125061,77.76678824
4186019,0.361406289,-0.248468921,-0.429550171,76.95738256
4186021,5.792604108,-0.325463084,0.676193237,89.88939872
4186024,0,-2.501419067,-2.501419067,0
4186027,0.455780162,0.764391655,0.820612639,9.68856422
4186028,4.015524475,-0.937713929,0.806845963,77.67428161
4186029,0.900097304,0.94351653,1.272079468,31.66574868
4186032,0.657836885,-0.313183001,-0.421463013,69.70844366
4186033,0.383877423,-0.111259732,0.037322998,79.21442781
4186041,0.249143234,0.090735118,0.105110168,88.07727209
4186044,0.206221081,0.010344114,-0.00680542,44.77256439
4186046,0.254765407,-0.034281742,-0.078338623,89.42254541
4186048,0.557408269,8.031594912,8.041171551,2.848561678
4186052,0.365345604,-0.217879653,-0.137825012,77.39045836
4186053,0.3408423,-0.134164714,-0.14176178,88.75939254
4186056,0.280874186,-0.13552341,-0.124984741,89.61644727
4186057,0.011070251,0.13558197,0.13558197,1.625892142
4186061,0.353940641,0.432988529,0.467575073,68.72382242
4186064,0.158784186,0.340381823,0.355026245,85.05740236
4186070,0.252266221,-0.043773835,-0.031311035,81.85717978
4186074,0.166395815,-0.603986208,-0.580703735,87.52809294
4186075,0.460261621,0.435543823,0.180374146,49.04913879
4186078,0.197486035,-8.330347697,-8.341522217,1.868907908
4186079,0.062337493,-0.125107731,-0.138778687,17.49136658
4186080,0.27118072,-0.037336024,0.018516541,69.20329805
4186083,0.128576806,-0.208936279,-0.170440674,5.899093828
4186087,0,-0.055862427,-0.055862427,0
4186089,0.523147991,0.506644497,0.522979736,56.92686774
4186091,1.543870081,0.844999994,0.611999989,58.11631758
4186092,1.416308109,6.351718224,6.434999943,16.20239787
4186094,0.245673496,-0.176828079,-0.234771729,87.04219547
4186098,0.921156663,0.061615488,0.383072257,37.07135531
4186099,0.28603897,-0.477900535,-0.582733154,65.01303039
4186101,0.083896595,0.046029119,0.03515625,66.01743098
4186103,0.647921871,-0.382698607,-0.892288208,42.06175209
4186111,0.257829805,0.041502175,0.062011719,73.36322045
4186112,0,-1.383999944,-1.383999944,0
4186113,3.443006509,-1.905419374,-1.099861145,89.21402619
4186116,1.860198744,-0.076324335,-0.312000006,84.27070573
4186120,3.936492732,-2.080398041,-2.243366957,62.87066477
4186124,0.36410431,-0.007123005,0.008636475,62.04336266
4186134,0.600826818,3.327155216,3.426207304,36.19069763
4186141,0.385327471,0.327994725,0.623970032,76.66603047
4186145,3.910067334,-4.113422657,-3.163937569,27.59470409
4186146,0.038439577,0.774859111,0.77646637,0.157640397
4186151,0.356961245,-0.253571771,-0.326583862,88.31255325
4186153,0.300813931,0.271609195,0.429992676,75.84683428
4186158,0.346944254,0.037805122,0.035804749,89.31995428
4186159,0.085265905,0.02477842,0.00718689,38.82145247
4186161,0.177972181,0.043252981,0.045295715,88.67979556
4186170,0.248954499,0.183416603,0.132553101,56.65747233
4186178,0.31834948,-0.12808282,-0.049980164,47.97278183
4186183,1.987019255,0.777680084,0.759231567,46.03623703
4186185,0,-0.934935749,-0.934935749,0
4186188,0.553452248,-0.001992657,0.022918701,62.35635008
4186200,0.480575261,-0.535847808,-0.89969635,65.16320896
4186207,0.386475102,-0.20904883,-0.199913025,85.76542288
4186218,0.072098312,0.710015374,0.740081787,2.291062023
4186219,0.420016943,0.766144536,0.74220252,4.933641431
4186220,0.13869516,0.062615571,0.034233093,43.87559669
4186256,0.613989381,0.446667175,0.361549377,89.34080081
4186258,0.520454275,-0.423732799,-0.863922119,18.81434973
4186262,0.23337549,0.092834622,0.126960754,63.71408151
4186267,0,-0.142791748,-0.142791748,0
4186268,0.057760286,-0.518590134,-0.505477905,8.515623318
4186274,0,0.875900269,0.875900269,0
4186282,0.380162011,0.008658439,-0.087341309,46.71908556
4186288,0.315860139,-0.338303156,-0.387268066,88.40383596
4186290,0.406122943,0.05400566,0.032653809,88.72952545
4186305,0,0.288501292,0.288501292,0
4186313,0,0.861923218,0.861923218,0
4186319,0.27117157,-0.196743226,-0.161437988,84.47181335
4186323,0.487247292,0.438033571,0.504219055,47.44201176
4186325,0,1.218648672,1.218648672,0
4186333,0.072476988,0.121820393,0.099700928,21.122919
4186338,0.490451446,-0.764873396,-0.946762085,9.933387077
4186339,0.313662455,0.194595246,0.102149963,86.15206099
4186344,0.17333155,0.129314228,0.171844482,89.49056418
4186347,0.276255415,-0.115610665,0.006469727,89.25438591
4186369,0.442265002,-0.460585826,-0.738357544,73.86665075
4186370,0.25707987,0.245077944,0.234725952,51.64837984
4186376,0.442618086,0.500168903,0.470436096,38.53660365
4186378,4.132679788,-0.998086825,-0.777511597,83.16610741
4186380,0.295035499,0.093394821,0.006217957,81.34933065
4186391,0.255892769,0.130505967,0.07636261,86.63714774
4186392,0.366347655,0.268513793,0.162139893,89.85520956
4186393,2.265948327,-8.109153881,-8.427000046,29.53011943
4186394,0.181645025,-1.22523272,-1.248576164,5.418506983
4186395,0.204906882,0.173529023,0.195709229,89.57342787
4186397,6.438052566,0.055147533,2.144999981,37.3366447
4186398,0.273707469,-0.118207853,0.002365112,24.70749611
4186400,0.076500177,-7.737499952,-7.737499952,0.261369547
4186402,0.782185312,-1.261374999,-1.043500006,13.54047023
4186406,0.093076069,0.089341537,0.09942627,28.44109925
4186409,4.51880309,0.640500022,-0.842500001,87.16838317
4186410,0.320807084,-0.239879993,-0.246765137,87.26591562
4186413,0.259777993,-0.551996213,-0.607070923,81.94894049
4186415,3.657628093,0.047483869,-0.804476321,89.52004816
4186424,0.505435612,-0.103918878,0.051223755,28.58965079
4186426,0.393576022,-0.50994873,-0.706085205,1.246532325
4186427,0.432492937,0.271264508,0.011291504,58.44228931
4186429,2.723280078,0.216074109,0.564880371,89.63165628
4186436,0.407924843,0.329629279,0.043991089,71.96816406
4186437,0.457090842,-0.67900743,-0.863800049,69.51819432
4186438,0.196774921,-0.018753648,-0.054962158,85.15512757
4186439,0.302999306,-0.033569435,-0.060913086,79.10502099
4186440,0.081880685,-0.0498928,-0.013969421,48.93403205
4186442,0.088456273,-0.052456575,-0.066169739,67.72146766
4186443,0.312924151,-0.015820309,-0.041259766,82.52779835
4186444,0.363951658,0.430060069,0.722549438,0.729820079
4186447,4.49655133,7.126372864,7.220912457,11.4389121
4186448,0.117299988,0.155311893,0.165519714,43.8546179
4186449,0.237683322,-0.126487789,-0.164601371,6.513313918
4186450,0.296398536,-0.028421144,-0.101409912,87.99737575
4186452,0.501785425,-0.409900526,-0.178733826,66.98991648
4186455,0.261499708,0.759833862,0.906005859,63.95445577
4186456,1.740634253,-0.4630835,0.002992752,89.46914636
4186457,0.414678338,-0.230874233,0.001525879,64.67440187
4186463,0.392232704,-0.190325157,-0.054550171,89.08175912
4186464,0.262857946,0.047126468,-0.017608643,75.19318971
4186465,3.181436018,0.440696359,0.345363587,89.81411627
4186466,0.24434766,0.172318419,0.221725464,87.24699555
4186488,0.411868971,0.565187686,0.623123169,84.91421589
4186491,3.398057415,3.403386842,3.173611283,79.59717472
4186492,0.302618792,0.099062367,0.145263672,89.02815342
4186514,0.544316936,-0.180991618,-0.16229248,24.3599327
4186516,0,1.389358521,1.389358521,0
4186519,0.53116246,0.03011436,-0.019470215,84.188178
4186525,0.025249602,0.00875125,0.008972168,7.324652697
4186529,1.75449599,3.334823638,2.737769663,18.59292437
4186531,0.078967608,-0.088416435,-0.055114746,8.282217447
4186536,0.236498432,-0.124704055,-0.052368164,89.24705816
4186540,0.282198275,-0.077551239,0.012321472,79.31332375
4186544,0.269701593,-0.20995521,-0.107192993,55.36457012
4186547,1.726511156,-0.291796684,-1.209976196,80.65599724
4186551,1.735178818,-0.348128623,-1.209976196,82.59006589
4186554,3.511481676,10.13763864,10.56950378,28.4337813
4186555,0,-2.026991129,-2.026991129,0
4186556,3.331284039,10.00675601,10.4641571,24.96339817
4186560,0.888798727,-1.239390782,-1.219558716,69.79268203
4186561,1.323235213,3.130455865,3.396484375,46.05782671
4186563,0.8483595,-0.900020909,-0.975341797,18.63665766
4186564,0,0.264862061,0.264862061,0
4186565,0,0.025436401,0.025436401,0
4186567,0,-0.501296997,-0.501296997,0
4186568,1.002301578,-1.566429237,-1.411087036,40.85851359
4186570,0.294724391,0.309385537,0.367355347,57.39034531
4186572,1.69600655,1.225578954,1.684999943,25.25895056
4186573,0.27263794,0.34720706,0.3671875,43.53687382
4186574,0.37187965,0.156889901,0.365524292,51.10239574
4186575,0.417085171,0.091644056,0.365829468,56.1846163
4186577,0.268357632,0.338327798,0.367111206,41.07144252
4186579,0.307549041,0.265201657,0.23286438,84.04142184
4186580,0.433988906,0.090915318,0.365737915,40.28246838
4186585,0.275868711,0.054910857,0.089538574,78.64096161
4186589,0.323095583,0.062951595,0.05380249,89.87027616
4186592,0.169893095,-0.06632145,-0.049362183,88.15774256
4186593,0.008648766,0.014187429,0.014816284,6.674180874
4186607,0.342954851,0.272980863,0.302612305,84.16753432
4186608,0.882633074,-0.214824461,-0.336380005,0.27480369
4186610,0.493214584,-0.166123962,-0.151329041,56.75690276
4186611,0.362052403,-0.068452426,0.02015686,67.05406381
4186615,0.085776713,-0.030587158,-0.042724609,20.18681063
4186621,0.219521639,-0.133833348,-0.098808289,88.57466721
4186695,0.410023365,-0.113950613,0.028030396,44.06532045
4186724,0.129925999,-0.042811934,-0.010375977,40.95489927
4186990,0.173086419,0.000146512,0.013931274,66.50560993
4187019,0.249270333,-0.036124901,-0.02394104,86.50613104
4187025,0.439534035,0.392709532,0.625457764,60.34912966
4187150,0.063041527,0.086873391,0.096282959,26.17524886
4187161,0.240214707,-0.081565202,-0.09186554,89.99621538
4187163,0.316480434,-0.572204028,-0.559356689,53.89938833
4187176,0.502407351,0.11915304,0.20085144,53.50883226
4187178,0.175039068,-0.041959801,0.011123657,28.67958342
4187184,0,-7.311294556,-7.311294556,0
4187199,0.495467593,-0.355772592,-0.454483032,61.01309548
4187203,0.446305515,0.935574573,0.975158691,89.83291667
4187214,5.947842305,5.314874721,9.106624126,61.28046421
4187218,0.276233389,0.109096154,0.091094971,49.69069614
4187219,0,1.491633177,1.491633177,0
4187221,0.236661503,-0.004685772,-0.004653931,89.3961685
4187222,0.30379402,-0.041559249,-0.061218262,84.05365728
4187223,0.178893638,0.285057663,0.254165649,76.93044478
4187225,0.390586033,0.251012439,0.099891663,84.84042723
4187226,0.277651288,-0.089077159,-0.050323486,70.77796808
4187232,0.907840288,1.168000005,1.436500013,13.07709809
4187244,0,0.060379028,0.060379028,0
4187245,0,5.37898016,5.37898016,0
4187246,0.081667401,0.11407298,0.114685059,25.37889603
4187247,0,-2.691082716,-2.691082716,0
4187251,0.211877127,0.106901311,0.13609314,89.8234447
4187253,0.316492626,0.039744705,0.147567749,87.03318128
4187254,0,-0.270544797,-0.270544797,0
4187263,1.321176381,9.038596857,9.39633131,1.768319275
4187271,6.761859754,-2.002487862,-2.583422422,76.13853192
4187275,0.102673462,-0.288062332,-0.293136597,23.98721209
4187276,0.136392251,0.289925422,0.31413269,27.96904919
4187277,0.272405631,0.212557765,0.287750244,89.50995096
4187278,0.161708505,0.281203609,0.304840088,10.50671133
4187280,0.14711075,0.282344585,0.31413269,21.22871557
4187281,0.165316308,0.293156033,0.323989868,12.70541424
4187283,0.170554582,-0.714665211,-0.73475647,5.072321653
4187286,0.324086814,-0.027277857,-0.113479614,84.2925587
4187289,0.533576247,0.184325571,0.245941162,78.56373424
4187290,3.434839537,0.263626149,0.672439575,76.36304221
4187294,0.453932689,-0.276292296,-0.077133179,27.66750116
4187298,1.562705341,0.702923073,0.152999997,89.78610425
4187300,2.628069172,0.607049561,0.333938599,87.77236162
4187303,0.148857473,0.24772644,0.290527344,45.92121675
4187307,0.232937143,-0.006285316,0.019493103,89.84238951
4187326,0.541089561,0.60812721,0.60812721,11.12106692
4187330,0.288823801,0.11161467,0.039413452,83.93646095
4187332,0.281247592,0.068787117,-0.010101318,89.58958266
4187338,0.088742291,-0.748573303,-0.735496521,1.852102846
4187340,0.330594495,0.133629898,-0.003059387,42.95650965
4187342,0,2.248764038,2.248764038,0
4187343,4.337212635,-3.541210684,-3.179596901,78.52076919
4187345,0.2963445,0.514797728,0.548118591,89.15449785
4187346,2.677936717,1.268591233,3.053100586,70.86429486
4187348,0.090632394,-0.153355553,-0.15234375,53.00765441
4187352,0.809906893,-0.080156338,-0.37210083,74.14646523
4187362,0.053491713,-0.004865456,0.022003174,6.379346272
4187363,0.248474569,0.048470111,-0.060134888,85.94139874
4187366,0.387541728,0.628872773,0.776672363,61.00541152
4187367,0.240359453,-0.093328626,-0.092147827,60.02588074
4187370,0,-0.159347534,-0.159347534,0
4187373,0.358012219,-0.168362163,0.003295898,47.95525525
4187376,0.198399878,0.012191772,0.042755127,18.61042806
4187379,0.002668512,0.245959215,0.246101379,2.655052686
4187388,0.552693686,0.262619705,-0.02545166,86.95673725
4187406,0.357307525,0.090009471,0.063735962,89.84062271
4187407,0.193007893,-0.897794754,-0.939537048,80.12367867
4187415,0,-0.736663818,-0.736663818,0
4187416,0.236775717,-0.880126314,-0.930053711,4.665014574
4187420,0.126570854,0.124141869,0.096359253,37.43489378
4187426,1.229872108,-0.626545873,-0.703781128,52.54967446
4187431,0.352469502,0.203523302,0.133575439,49.48573807
4187445,0.050773705,0.125525433,0.127243042,11.9493556
4187447,0.343523995,0.179653679,-0.028610229,74.83479517
4187454,0.023242132,-0.32783309,-0.325866699,18.98254268
4187458,0.303541323,-0.251902298,-0.308181763,74.50302309
4187463,0.438199891,0.073917267,0.040885925,88.02477453
4187465,0,5.839636326,5.839636326,0
4187466,0.473666444,0.224760848,0.146034241,68.68589133
4187467,0.226197247,-0.106302558,-0.104858398,89.88328041
4187473,0.183260362,0.799110622,0.813858032,61.43468529
4187476,1.828430822,0.657350396,0.346560687,82.42559218
4187487,0,1.283292055,1.283292055,0
4187494,0.2754322,-0.013617548,0.009552002,87.54312705
4187501,0.333424878,-0.127216291,-0.050437927,89.57071406
4187506,0.051852249,0.453806559,0.451782227,4.018420025
4187507,0.276015742,-0.11248375,-0.012321472,82.60228896
4187510,0.427675486,0.201905336,-0.012908936,72.35343734
4187512,0.204474156,-0.912124451,-0.939971924,29.91408606
4187513,0.317674679,-0.030509088,0.007835388,83.80103951
4187536,0.072365514,-0.013839722,-0.006408691,21.91404731
4187537,0.315851964,-0.035810655,-0.035057068,88.13577589
4187538,0.124017259,0.034849291,0.036819458,60.8289349
4187539,0.13527015,0.126981064,0.12664032,61.24392503
4187544,0.361444761,0.139384868,0.210548401,87.8634481
4187546,0.250936304,-0.117079749,-0.094161987,85.52308269
4187553,0.184319202,-0.159583229,-0.165939331,88.92117846
4187554,0.239399676,-0.036810157,-0.013427734,89.26686212
4187557,0.284202058,-0.093475046,-0.098129272,89.83125989
4187558,0.128855278,0.030649146,0.030395508,16.57239685
4187559,0.122718036,-0.066599825,-0.029998779,30.3784615
4187560,0.223323339,-0.037695515,-0.00920105,84.26691445
4187564,0.280009127,-0.046742266,-0.000701904,88.93958257
4187565,0.232773252,0.028678847,0.025733948,87.53803562
4187587,0,-0.124572754,-0.124572754,0
4187589,0.046397348,0.050092809,0.04574585,16.48147211
4187593,0.441247359,5.314612252,5.366607666,1.102491304
4187595,0.325315127,-0.131288572,-0.0677948,88.68312854
4187597,2.009562926,-0.359526242,-0.050765991,84.50473316
4187599,2.414289623,1.965057242,2.558204532,88.33067917
4187603,0.380261684,0.192673516,0.171318054,89.98813493
4187605,1.324431095,0.103901437,0.348114014,86.13818272
4187606,0.500004667,-0.28553503,-0.137870789,54.11373919
4187608,0.770085276,1.653815472,1.790862918,8.841560553
4187609,0.442140222,-0.398146182,-0.369720459,63.07795045
4187612,0.265046858,-0.06472338,-0.143547058,89.17578016
4187613,0.455060824,-0.54611812,-0.640167236,55.92639332
4187615,0.225411885,-0.308711289,-0.349815369,85.14861957
4187625,0.283232622,-0.394073993,-0.404342651,86.89642806
4187627,0.281941716,0.325457297,0.299682617,87.13477688
4187633,0.20141991,-0.002119182,-0.01461792,88.7801787
4187635,0.055365525,-0.000296021,0.021957397,11.16754473
4187636,0.182755514,0.002271303,-0.014541626,79.39452769
4187637,0.147358449,0.007112077,-0.01449585,62.97890917
4187639,0.147156245,-0.988487645,-0.991653442,8.583208096
4187645,0.019184231,0.003422951,0.009216309,5.718145152
4187649,0.050634455,0.014483972,0.008544922,42.22086286
4187651,0,4.44299984,4.44299984,0
4187652,0.356174177,0.015448515,0.063987732,86.02523514
4187654,0.177718422,8.252267202,8.166871071,1.864069326
4187655,0,0,0,0
4187659,0.272513734,0.306927239,0.494644165,89.36469062
4187671,0.206600171,-0.338881486,-0.295677185,23.24357438
4187673,2.57241165,-0.330643634,-0.590171814,65.70553767
4187679,0.379305227,-0.053149495,-0.081710815,89.77634119
4187680,0.364126775,-0.181337379,-0.408958435,54.67594751
4187685,0.012271547,0.020384725,0.021270752,1.973753207
4187687,0.234372619,-0.138719875,-0.116195679,89.5151907
4187691,0.550349003,2.275304159,2.43359375,6.359574986
4187692,0.523335244,0.195215301,-0.009872437,89.29493001
4187693,0.459405641,-0.183110918,0.091514587,51.2437528
4187697,0.362425507,-0.038309987,0.003326416,67.7015206
4187700,0.205393687,0.050217323,0.003814697,87.53667906
4187701,1.091233419,-0.181554671,-0.478840351,61.88109278
4187703,0.265869766,0.141776354,0.185455322,50.37661191
4187704,0.307370861,-0.265215997,-0.270080566,85.1204527
4187711,0.660541084,-0.586613411,-0.96308136,39.0905851
4187712,0.300554655,0.3887037,0.534622192,66.80640495
4187717,0.247979491,0.80943462,0.884414673,57.63015145
4187719,3.676895756,4.16787529,5.248085022,76.21259807
4187720,0.06056047,0.006301016,0.011047363,0.533121285
4187723,0.401174919,0.59533844,0.827842712,58.50351123
4187726,0.485305528,-0.322752892,-0.527877808,63.11224457
4187729,0.013950234,0.037541659,0.037490845,13.64349467
4187736,0.267779931,0.030757641,0.006576538,89.04284004
4187744,0.476790248,-0.334855976,-0.035232544,76.79970816
4187751,0.233900936,-0.142319676,-0.180084229,75.42525519
4187754,0.12737844,-0.888399622,-0.985206604,17.66060086
4187756,0.16125666,-0.022889155,-0.017402649,86.18906878
4187778,0.454938079,-0.577313995,-0.746292114,88.99237979
4187782,0.472572213,0.357091792,0.358795166,60.37335988
4187784,0.168428558,0.173940327,0.157836914,81.76222345
4187785,3.695155737,6.700202942,7.173545837,58.88933801
4187787,0.198422232,0.042240945,0.031906128,82.69059826
4187793,0.331762421,0.563439846,0.745491028,4.501652927
4187801,0.186233561,-0.00555575,0.002418518,83.18229326
4187804,0.171936017,-0.069120335,-0.071380615,66.63504558
4187812,1.26055637,-0.918820899,-1.004999995,78.22423645
4187819,0.160362008,0.000416692,0.003410339,48.17017063
4187820,0,-2.446948767,-2.446948767,0
4187822,2.022996426,-0.15198438,-0.739830911,36.011768
4187823,2.12180385,-0.772166223,-0.936161458,81.56951394
4187828,4.567787694,2.688560153,2.557085514,58.7853238
4187831,0.233130553,-0.043571753,-0.068435669,89.74735153
4187842,0.152942635,-0.186632493,-0.218978882,44.65246482
4187843,0.048071071,-0.085809326,-0.093284607,20.69527439
4187845,0.190103621,0.12423685,0.106506348,87.93751387
4187851,0,0.380678058,0.380678058,0
4187852,0.178340068,-0.512644582,-0.565864563,28.11306547
4187854,0.309338838,-0.059512868,-0.080703735,89.9077959
4187858,0.361716419,-0.66890404,-0.831298828,88.19735577
4187861,0.133254237,-0.092053769,-0.097831726,66.39139737
4187883,0.342992873,0.042632295,0.00378418,89.68189168
4187885,0.246604273,0.095826238,0.095245361,88.26418109
4187886,0.281457135,-0.589151974,-0.643997192,89.9926422
4187891,0.478093449,0.163743274,-0.003540039,83.44082178
4187893,0.212864367,-0.161118948,-0.139068604,89.25071886
4187906,0,-1.740637779,-1.740637779,0
4187907,0.901698043,-0.904104769,-0.876304567,10.08432235
4187909,0.349943967,-0.036857096,-0.206604004,30.91268429
4187913,0.45639357,-0.194177818,-0.048233032,44.47231134
4187922,0.461708458,-0.514682818,-0.712219238,50.65871894
4187925,0.341666229,0.136068181,0.092179578,29.11504089
4187927,0.073630459,0.018346907,0.01638031,39.37979183
4187929,1.71102583,-0.477809526,-0.305999994,89.70713696
4187931,0.19939837,-0.183998108,-0.19757843,33.45536221
4187933,0.331927899,-0.227021625,-0.275314331,85.79561299
4187947,0.153168133,1.770512134,1.805228055,1.880859957
4187950,0.286418224,0.07246225,0.071502686,85.6980091
4187951,0.251585853,-0.168439724,-0.275939941,69.66101584
4187954,0.458632077,-0.603684269,-0.902481079,63.49218605
4187963,0.289709099,-0.055552664,-0.012191772,88.50257905
4187966,0.458880889,0.228141494,0.128555298,89.06941133
4187975,0.209337901,0.023459133,-0.037651062,89.21009697
4187981,0.194084699,-0.034271337,-0.015411377,81.20052294
4187983,0.359529716,0.370491486,0.428665161,56.15007768
4187988,0.317083091,-0.066794948,-0.048858643,86.45157309
4187990,0.393394967,-0.183844452,-0.026184082,88.22118978
4187992,1.529358918,0.498627039,0.65842557,53.56279783
4188003,1.941074571,-0.518772991,0.08499416,71.00147641
4188004,0.167089938,0.070836183,0.064987183,49.46485129
4188015,0.370560577,-0.096540145,-0.006019592,88.59589285
4188017,0.418621951,-0.117108616,-0.006591797,89.41761281
4188019,0.448903644,0.56893768,0.702163696,88.45396784
4188021,0.369422069,-0.004487136,0.076324463,87.70914884
4188025,0.528990631,-0.256362915,0.080841064,51.4698139
4188028,0.406224092,0.747759816,0.880523682,72.72559708
4188030,0.415934549,0.371986131,0.476760864,88.40500882
4188033,0,0.611282349,0.611282349,0
4188039,1.437387268,-0.480550905,-0.395055339,20.29286955
4188040,0.310298364,-0.082951082,-0.076843262,89.72603405
4188046,0.247025996,-0.133259024,-0.202667236,82.51732847
4188051,2.391323156,-0.250963536,-0.110136643,82.26036369
4188053,0,3.313575268,3.313575268,0
4188054,3.130775895,-1.131102798,-0.814028591,61.74361626
4188059,0.169757069,0.107430763,0.099411011,89.90576623
4188063,0.070351973,0.049118302,0.076644897,62.69974879
4188066,0.515950451,-3.14949255,-3.323152065,6.477531216
4188069,0,-0.041503906,-0.041503906,0
4188070,0,-0.055066638,-0.055066638,0
4188072,1.772875822,1.413976241,1.590789795,89.58442129
4188076,0.630209606,0.587816576,0.785385132,81.80317039
4188078,0.35868868,-0.413466631,-0.474060059,89.04936912
4188080,0.136739786,0.22544172,0.213973999,64.25546128
4188083,0.355304874,-0.296707555,-0.209899902,84.00728301
4188091,0.381075408,-0.154008498,0.025436401,44.57203207
4188092,0.771152498,-0.023769232,0.305999994,22.28070335
4188096,3.442768029,1.880256381,0.723647475,82.28755737
4188098,3.908062227,-0.253719781,-1.182735682,57.13715071
4188101,0,-1.041137695,-1.041137695,0
4188102,0.003009129,-0.005177736,-0.004806519,21.95461939
4188103,3.715223423,0.271238853,1.455674589,56.34128371
4188105,0,-1.280303955,-1.280303955,0
4188106,1.373912559,-1.394401281,-1.353921056,28.52689598
4188123,0.472315579,0.17210414,0.020706177,71.79778744
4188126,0.067583234,-0.068592072,-0.075439453,47.14499759
4188137,0,0.252822876,0.252822876,0
4188138,0.211826539,0.050334008,0.074737549,88.62261737
4188139,0.286364713,0.075399923,0.066169739,88.36528061
4188142,0.027124437,-0.011698405,-0.00881958,8.968941478
4188145,0.132799183,0.667121224,0.680000305,12.73497378
4188152,0.353900455,0.03880895,0.028503418,53.75468637
4188154,0.351458705,0.254401844,0.337463379,56.18990271
4188158,1.552384776,0.107571355,-0.080208205,64.83027777
4188169,0.233560817,-0.007732547,0.029838562,89.44906027
4188172,0.795434867,-0.02061602,-0.247657776,43.18854834
4188176,4.408272977,-0.073544971,-1.492186248,70.31207402
4188177,0.455740636,0.424680652,0.30619812,51.71609355
4188182,0,-6.54574728,-6.54574728,0
4188183,0.759106474,-2.414321899,-2.382354736,7.781247021
4188196,0,-0.060424805,-0.060424805,0
4188197,4.518642758,2.306165423,3.742370605,88.01759911
4188204,0.316727147,0.076094543,0.000480652,76.71515863
4188206,0.184312932,0.419698063,0.448478699,82.47239461
4188210,0.243321234,-0.114370275,-0.025924683,86.15888083
4188213,0,-4.449172974,-4.449172974,0
4188215,0.236683294,-0.761475651,-0.845428467,49.28453866
4188218,0.017713937,0.000264717,0.002029419,6.262320879
4188222,0.025480824,-0.009433463,-0.018417358,8.740222029
4188225,0.289665411,-0.24374258,-0.300727844,88.41907747
4188230,0.197484863,-0.724163202,-0.772155762,23.61925113
4188242,0.193521462,-0.03409732,-0.024230957,34.50310811
4188247,0.376417939,-0.058222334,-0.093086243,89.82856853
4188262,0.408380742,0.289841544,0.315032959,82.31770633
4188273,0.181080308,-0.901873449,-0.94683075,62.97212685
4188279,0.202790971,0.044763264,0.000427246,70.45638988
4188284,0.747186004,3.458244925,3.620143414,6.886739357
4188290,0.46569603,0.305561074,0.012466431,44.51581431
4188294,0.384422441,-0.157616054,-0.113708496,87.64423413
4188296,0.011774692,-0.088460586,-0.088165283,2.767383312
4188309,0,0.958877802,0.958877802,0
4188314,0.377983651,-0.094300179,-0.059692383,89.63934953
4188328,0,0.287312984,0.287312984,0
4188336,0,-1.375762939,-1.375762939,0
4188341,4.507052352,4.322954178,5.569030762,85.59536027
4188344,0.268900309,-0.173768098,-0.143203735,88.64356054
4188355,0.321946689,0.531529598,0.686920166,37.46408497
4188357,0.580947042,-0.01294965,0.104988098,86.01186863
4188358,0.277411315,-0.102096011,-0.094696045,84.97930928
4188362,0.482694002,0.004983427,0.065475464,64.60460076
4188364,0.272109984,-0.523157424,-0.544754028,79.55415489
4188367,0.304569706,-0.767227173,-0.693603516,20.46786057
4188377,0.325865505,-0.293385669,-0.265029907,86.98971401
4188381,0.766765402,-5.452554975,-5.267243862,14.91125244
4188384,1.221311074,0.71691059,0.953490853,50.29490324
4188388,0.393186407,-0.317449271,-0.480545044,79.52326917
4188437,0.211673741,-0.316078392,-0.379959106,72.70211247
4188496,0,0.340057373,0.340057373,0
4188512,0.594972465,-1.391228994,-1.532608032,8.060585931
4188516,0.462493483,0.425249819,0.159973145,42.65474374
4188562,0.421818221,0.228869257,0.156417847,62.7338736
4188622,0,1.648407817,1.648407817,0
4188891,0,-0.308861464,-0.308861464,0
4189001,0.439438363,0.377304006,0.242492676,88.54135577
4189036,0.466723382,-0.487594604,-0.578033447,58.39315321
4189186,0.030275169,-0.172964175,-0.170166016,15.95810566
4189189,0.433471867,-0.37629099,-0.268188477,72.78150938
4189193,0.417315332,-0.308827489,-0.169799805,82.5336317
4189196,0,0.040893555,0.040893555,0
4189197,0.178989531,0.06621314,0.032142639,50.79702146
4189200,1.412361533,-1.032060538,-1.260547221,32.96752616
4189201,4.952736636,-7.706613809,-8.274000168,47.53369405
4189204,0.128119389,-0.36015165,-0.357315063,38.51346501
4189207,0,0.028198242,0.028198242,0
4189209,0,0.162810683,0.162810683,0
4189216,1.635186694,0.282715327,0.342370838,71.27452522
4189217,2.754928235,-3.598943648,-2.710236311,86.85613507
4189229,0.851462894,-2.326208975,-2.56666255,12.89523793
4189230,0.240988815,-0.074346135,-0.073768616,76.36384875
4189252,0.572884048,-0.456180226,-0.646125793,74.54022407
4189254,0.227908632,0.037414881,0.096481323,51.11190551
4189266,0.2222026,-0.02453241,-0.010246277,66.24890977
4189269,0.085030258,-0.011155449,-0.019729614,47.13511741
4189276,0,0.424972534,0.424972534,0
4189277,0.061919683,0.746089544,0.763648987,5.970893828
4189292,0.454873446,0.223772618,-0.004989624,54.60150482
4189293,0.296669705,0.145305153,0.280845642,87.7287217
4189295,2.425045203,5.610252289,3.948159218,9.071962125
4189296,2.034270196,-0.292107955,0.401627332,83.88157966
4189297,0.225474467,0.134630996,0.10244751,49.26269682
4189304,0.017880776,0.053929647,0.06149292,2.563897767
4189308,0.367070433,-0.36684822,-0.480781555,68.56542913
4189311,0.029815867,0.494377723,0.493011475,5.520742812
4189312,0,-0.632614136,-0.632614136,0
4189316,3.437540396,0.436479575,-0.050278235,47.7664428
4189318,0.167226264,0.159175362,0.147766113,73.14246749
4189321,0.893213857,-2.156482684,-2.286462545,24.14666956
4189326,0.127497591,0.061446054,0.069694519,33.43068242
4189330,0.00670624,0.129886664,0.129928589,22.32430064
4189336,0.40913359,-0.495110594,-0.561035156,68.69075847
4189337,0.319144598,-0.30171871,-0.275268555,45.6556286
4189338,0.289429784,0.126918992,0.017745972,48.03014742
4189342,0.210140156,0.090528874,0.091049194,88.89892924
4189344,0.067801994,-0.009189381,0.006530762,31.68613134
4189348,5.136837884,2.58746236,1.225000024,83.87520209
4189354,0.208515111,0.448213478,0.545455933,23.57174825
4189361,0,-2.592999697,-2.592999697,0
4189363,0.325918628,0.000743576,-0.07837677,85.01587067
4189365,0.132504123,-0.179961957,-0.171409607,65.86452626
4189366,0.116402265,-0.268956057,-0.278579712,75.90736378
4189368,0.642918274,0.376596317,0.283721924,87.48246864
4189379,0.221873409,-0.069152832,-0.185699463,4.636697007
4189382,0,-8.360519409,-8.360519409,0
4189388,0.28027745,-0.438389592,-0.486175537,85.88550378
4189395,0.018249346,0.338527797,0.340110779,10.0921924
4189396,0.692716055,-0.456130921,-0.926849365,64.07045237
4189397,2.626182084,7.089310972,8.239645004,55.61924298
4189398,0,-3.18019104,-3.18019104,0
4189401,0.173352102,0.341389001,0.350074768,64.31717479
4189403,0.280304131,-0.499060448,-0.563690186,64.14957362
4189407,0.41899544,-0.055557533,-0.000534058,81.25614091
4189411,0.222779036,0.051253905,0.061340332,89.85532682
4189414,0.596258474,-0.207195269,-0.019927979,68.57457602
4189416,0.190127262,-0.297579244,-0.306739807,85.13712592
4189421,0.213552826,0.154707065,0.173034668,87.24175023
4189428,0.160886937,-9.807872256,-9.809044361,0.133866454
4189429,0.11375597,-8.808797201,-8.784057617,0.188972174
4189431,0.429100275,-0.044566679,-0.021682739,61.60197676
4189434,0.020920603,0.026209864,0.0105896,0.541354893
4189437,0.213263576,-0.301816737,-0.350395203,50.13572215
4189438,0.152841806,-0.264533925,-0.280212402,67.44563843
4189440,0.374797989,-0.047817862,0.035690308,87.83918226
4189447,0.119078745,0.167851278,0.22253418,29.47766878
4189449,0.417990332,0.073542715,-0.008544922,61.46690213
4189456,0.281524409,-0.02907095,0.011421204,49.39060964
4189461,0.058560385,-0.124417986,-0.114395142,0.319688751
4189487,0.498105248,-0.122707297,-0.194046021,89.38484788
4189488,0.239975719,-0.01507578,-0.017959595,89.06518133
4189492,0.12664868,0.169549998,0.18788147,89.87471543
4189494,0,0.326553345,0.326553345,0
4189495,0.286155098,0.121890368,0.000976563,74.19101639
4189497,0.439444859,-0.069414371,0.023422241,89.20290248
4189498,0,0.420059204,0.420059204,0
4189499,0.171662171,0.089971659,0.020172119,63.58508992
4189501,0.407146476,0.06197841,0.218948364,77.48040008
4189507,0.322013077,-0.034246113,0.080993652,89.32447094
4189515,0.219242626,-0.148509068,-0.172088623,82.46785558
4189525,0.263618874,0.078629547,0.035202026,81.29135026
4189528,0,0,0,0
4189533,0,7.985473633,7.985473633,0
4189535,0.391112414,-0.073300427,0.001045227,89.8684759
4189540,0.671611271,-0.491687049,-0.550842285,89.9057486
4189550,4.736679808,-0.005586661,1.599375606,32.61774076
4189552,0.678859484,-0.387718749,-0.478500009,14.00235212
4189553,0.507320435,0.329073467,0.273979187,86.3878822
4189555,0.517945467,0.317293321,0.285247803,86.02788224
4189556,0.515150633,0.308251144,0.132896423,82.52796437
4189558,0.156065816,0.020432221,-0.004989624,88.92230532
4189559,0.553656348,0.267885009,0.232002258,80.37131945
4189560,0.386569148,0.390418091,0.357467651,86.02788224
4189562,0.554339505,0.293569195,0.246818542,79.48733674
4189572,0,1.359948039,1.359948039,0
4189575,0.315601248,-0.038126119,0.061470032,69.31473335
4189580,0.389009749,0.478834364,0.669837952,56.84112713
4189584,2.004864031,-0.795505013,-0.531529009,46.61330113
4189585,0,0.109085083,0.109085083,0
4189586,0.332463251,0.036950454,-0.008728027,87.30427829
4189587,0.29563107,0.202094502,0.096511841,29.69960821
4189601,0.075796014,-1.888596487,-1.881899953,4.692999973
4189605,0.382000686,0.069723537,0.070266724,89.80390077
4189606,0.23781876,0.039267222,0.091262817,18.58766232
4189611,0.15810333,-0.000899828,-0.004493713,88.92230532
4189612,0.402420917,0.153414359,0.088264465,89.33991318
4189616,0,0.457292527,0.457292527,0
4189619,0.170237403,0.758388265,0.810745239,3.13619775
4189625,1.529234684,-0.087296999,-0.02633667,77.18125404
4189630,0.0185829,-0.025660536,-0.028549194,6.294065601
4189635,0,-0.312443316,-0.312443316,0
4189640,0.542594215,-0.395314251,-0.471588135,39.91204689
4189643,0.256782858,0.16767901,0.146743774,65.21246164
4189649,1.279748124,-0.578309444,-0.670396924,36.20352954
4189650,0.249012559,0.115711945,0.084289551,86.36540141
4189652,0.032569885,0.013511658,0.013511658,0
4189653,0.056854205,-0.208778675,-0.216400146,5.713723004
4189656,0.258160544,-0.053644638,-0.121841431,89.40985482
4189663,0.339718964,0.249458163,0.106307983,71.71408567
4189667,0.066003577,-0.124908447,-0.145233154,7.085116763
4189672,4.420708256,-1.866445709,0.061218262,82.28708841
4189684,0.287129737,-0.881170099,-0.95880127,1.589331737
4189685,0.718942604,6.172440529,6.012024164,1.649169246
4189689,0.17899207,0.198882639,0.129989624,10.99620392
4189690,0.415202018,-0.205755606,0.054382324,60.4442233
4189694,6.8914989,3.057318321,1.814804912,68.08144903
4189730,0.51852059,0.062882583,-0.052047729,72.95216948
4189734,0.338119469,0.429063635,0.550369263,71.87870041
4189742,0.200118719,0.173646815,0.109588623,43.72384168
4189754,0,-0.123886108,-0.123886108,0
4189758,0,-7.858009815,-7.858009815,0
4189762,0.200141167,-0.077811064,-0.074569702,86.30510643
4189763,0.409078182,0.047319259,-0.303436279,5.39693834
4189765,0,4.700683594,4.700683594,0
4189766,0.016398789,0.018614064,0.016647339,1.312681658
4189768,0.01986991,0.554172863,0.553634644,3.633826382
4189770,0.206811381,0.252004724,0.277618408,83.50360296
4189779,0,-0.77961731,-0.77961731,0
4189783,0.223542639,-0.114686778,0.004547119,80.423711
4189791,0.778336474,-0.738571441,-0.651000023,5.492595045
4189792,0.353794245,-0.115497589,-0.074264526,18.39903749
4189794,0.41432553,-0.095279037,-0.074523926,87.45723308
4189796,0.246353885,-0.173835839,-0.214019775,89.94454458
4189797,0.221249822,0.011578483,-0.024803162,89.60291305
4189798,0.243755945,0.023271583,-0.025909424,88.64792458
4189801,0.559553577,-0.050055072,-0.00642395,89.19462355
4189803,0.194855703,-0.035831686,0.015197754,28.20282755
4189806,0.158386635,0.016547729,0.085510254,43.52735491
4189811,0.256467084,-0.155516792,-0.111541748,79.99882976
4189819,0.21330057,-0.085219152,-0.022720337,80.09577009
4189821,0.100147805,0.144927736,0.139266968,30.69978335
4189822,0.19506641,-0.009580849,-0.009376526,84.63509155
4189825,0.009569027,-0.099537106,-0.100502014,0.404536293
4189826,0.328725806,0.578835006,0.708465576,88.49630862
4189831,0.336020314,0.061053,0.14151001,82.39816946
4189834,2.71129449,3.535421397,4.325125217,89.70112374
4189835,2.741788776,-2.139123431,-1.361103654,23.24122893
4189841,0.176746321,0.110519253,0.133277893,85.71007591
4189843,0.298033434,0.049768325,0.015792847,87.76884659
4189849,0.216089887,2.347913742,2.458845139,2.519456819
4189850,0.403485298,-0.224036217,-0.049064636,65.00047246
4189853,0.363003838,-0.00540434,-0.037597656,79.89747226
4189855,3.328922281,-8.434840781,-9.619303703,32.27772521
4189857,0.015844009,-0.00843811,-0.010192871,13.8734396
4189859,0.174097262,0.027318131,0.009765625,89.33471871
4189881,0.082611246,-0.553298717,-0.55721283,17.40807695
4189883,0.039650412,-0.825102254,-0.82257843,6.567212045
4189887,0.374869549,0.105262206,-0.013565063,52.82479125
4189891,1.370343226,-4.500301087,-4.893748283,38.63611023
4189903,0.323075914,-0.089240515,-0.102157593,85.67735267
4189905,0.302800388,0.084939455,0.028465271,79.80712881
4189909,0.311678588,0.246595122,0.335708618,81.54922233
4189911,0.295542451,-0.278548531,-0.240432739,71.33024142
4189921,0.074936291,-0.216388702,-0.247940063,10.59463319
4189922,0.140324687,0.272318467,0.298339844,87.87296532
4189925,0.343319789,0.7317388,0.90385437,60.15161518
4189929,0.12946898,-0.016239962,-0.035232544,27.64484652
4189934,0.271143227,0.073567267,-0.0184021,45.28360724
4189941,0,-1.63289547,-1.63289547,0
4189943,0,0.703895271,0.703895271,0
4189947,0.365177552,-0.105804492,-0.14389801,62.90009658
4189951,0.368225971,0.020110425,0.087890625,87.2781048
4189957,1.974795638,-0.77410066,-0.995987892,71.24024123
4189958,4.854631778,-4.2001909,-3.173339844,67.26395612
4189964,0.529306064,-0.216686443,-0.093635559,87.93664635
4189966,0.286191221,-0.158496031,0.000305176,87.4661822
4189967,0.560060236,-0.284241202,-0.068695068,89.68726799
4189968,0.34564607,-0.523617177,-0.534988403,60.04274394
4189973,0.415912482,0.544905683,0.325088501,43.61728413
4189982,0.264970922,0.062551108,0.0259552,84.67787462
4189991,0.533110426,-0.213769844,-0.097839355,52.42343583
4190007,0.224002179,-0.135367162,-0.194503784,81.69379352
4190009,0,-1.481582642,-1.481582642,0
4190036,0.216716021,-0.069494304,0.011230469,60.19074212
4190049,0.183059331,-0.851373413,-0.906486511,60.30976804
4190050,0.342037046,-0.202344886,-0.081604004,89.13658799
4190056,0.384314645,-0.49710419,-0.580932617,85.61515944
4190059,0.073696607,-0.03319842,-0.055740356,29.61929287
4190065,1.909209518,0.310510082,0.100556478,51.28115454
4190070,0.082200063,-0.04257075,-0.072288513,18.65107248
4190076,0.253090321,-0.166298996,-0.050186157,86.9126625
4190081,0.319495541,-0.276100081,-0.278289795,78.76064064
4190082,0.055519122,-0.034102376,-0.0470047,50.87333606
4190085,0.27301371,-0.133548726,-0.104598999,82.82918555
4190097,0.024438011,-0.091201286,-0.08404541,10.2851235
4190102,2.496182433,-0.509333437,-1.067846537,81.51529829
4190105,0.215138314,-0.006881714,0.032501221,65.89910648
4190106,0.350218235,-0.103575981,-0.023391724,89.13658799
4190110,0.202956652,0.101676866,0.088577271,89.47949299
4190114,0.034237695,-0.055070347,-0.063796997,16.10987456
4190119,0.311709075,-0.253013427,-0.084442139,33.5311524
4190120,0.318776366,-0.819146963,-0.921096802,88.32116718
4190121,1.640617375,-9.522913951,-9.284115791,6.726601725
4190127,0.410765036,0.228726093,0.116073608,85.31042029
4190138,0.265451245,-0.193002629,-0.102844238,48.71995378
4190140,0.26851191,0.109739959,0.039596558,85.95947821
4190141,4.795076869,-1.832881591,0.081500001,64.46123791
4190147,0.379010239,-0.288707839,-0.326690674,64.91983531
4190160,0.016298861,0.01106616,0.012237549,79.95343542
4190170,0.063548044,0.126674486,0.132843018,19.04717051
4190177,0.308335105,0.906489902,0.892356873,52.401265
4190190,0.216162191,0.032839991,0.069992065,86.66834533
4190198,6.25459155,2.439996118,6.218938828,72.94274288
4190223,0.57137599,-0.396563096,-0.170333862,88.11471142
4190224,3.577981026,0.014455886,-0.475847587,77.50568847
4190225,2.379395354,-3.31990271,-2.421735048,32.93411495
4190226,4.105033816,-3.141246412,-5.548950195,84.52077107
4190227,0.420934228,0.290210954,0.421966553,88.79542335
4190231,3.5773515,-2.066064219,-4.319139957,49.19056713
4190233,0.320197838,0.097943741,0.019218445,87.02299865
4190235,0.2718918,-0.064259463,-0.030990601,89.84706187
4190245,0.210706506,0.123983598,0.164138794,89.00689736
4190247,0.213614004,-0.00300739,0.006347656,89.9218965
4190248,0,-9.039999962,-9.039999962,0
4190249,2.935523673,1.39716952,0,70.9402714
4190252,3.801266656,-3.506693546,-2.834499955,88.76931591
4190253,0.789615301,-9.205719986,-9.039999962,1.743818962
4190254,0.524858988,-0.259757519,-0.112518311,28.65523489
4190260,1.884046561,-4.497936428,-4.362368584,26.45601609
4190271,0,-0.460296631,-0.460296631,0
4190276,0.287729174,-0.07816936,-0.016136169,84.79474321
4190283,0.59643063,-0.284248145,0.014816284,59.54905036
4190284,0.155720669,-0.10489686,-0.083023071,86.38034457
4190285,0.319750932,0.012440976,0.178146362,89.02680088
4190287,1.717241168,3.481767774,3.481767774,0
4190300,0.210873815,-0.073459976,-0.061500549,88.64617548
4190303,0.03432276,-0.187039693,-0.177337646,3.917462544
4190307,0.132619836,0.261250002,0.287,15.29446382
4190309,0.300206542,0.395227574,0.422775269,86.59396587
4190311,4.029899831,1.778076203,0.804451764,80.92098269
4190312,0.228512346,0.095486985,0.072433472,89.78242398
4190317,0.26221607,-0.081978543,-0.094421387,51.96495679
4190318,0.262792634,0.086245835,0.096038818,88.22941308
4190324,0.51234725,0.283916516,0.303970337,86.43525714
4190327,0,-2.885803223,-2.885803223,0
4190329,0.307097473,-0.794344017,-0.884635925,18.69203065
4190334,0.463721778,4.314760441,4.329913616,5.797357146
4190339,0.178581628,0.000861365,0.02772522,88.64617548
4190340,0.157012804,-0.461938687,-0.574790955,63.5312646
4190353,3.620996007,0.115649969,1.247451782,69.13935095
4190362,0.396045677,-0.333234766,-0.349884033,55.10227947
4190365,0.588564942,0.137619798,-0.049995422,84.8895017
4190379,0.103870238,0.018330017,0.03553772,52.13418423
4190381,0.618005018,-0.077924834,0.097015381,83.91166411
4190382,0.237764797,-0.176763178,-0.25440979,88.41012747
4190383,0.346287381,-0.029869425,-0.016220093,79.15680315
4190384,0.488024505,-0.933658854,-1.07619369,9.840360582
4190386,0.451040202,-0.26358374,-0.126274109,72.24824659
4190387,5.017255165,-0.571374023,-0.794899225,54.15774781
4190391,0.323570147,0.03040707,0.029983521,64.91644739
4190392,0.320638443,0.756785217,0.832839966,81.33800648
4190395,0.183498859,-0.118025124,-0.044128418,72.55805565
4190400,0.207421842,-0.53287167,-0.589569092,12.95723441
4190402,4.327117906,0.010049861,-0.1316811,53.88847512
4190403,0.83903757,-0.126413842,0.306457818,0.152253762
4190408,0,-4.264821529,-4.264821529,0
4190409,0.085474364,0.126171151,0.168014526,35.34766331
4190410,0.395775653,-0.324887806,-0.282417297,61.82297467
4190414,0.179003894,0.210047174,0.27557373,60.31303105
4190417,0,-7.42225647,-7.42225647,0
4190427,0.653009974,1.691612336,1.714248419,8.088174953
4190430,0.237379734,0.01300199,-0.035903931,89.2007811
4190435,0.339625667,0.007882221,-0.028579712,88.92161522
4190457,0,0.30960083,0.30960083,0
4190459,0.649950033,-5.019199916,-4.694274902,4.063184977
4190464,0.24018572,0.497192089,0.377410889,29.10937639
4190466,0.337852454,-0.197372837,-0.149337769,89.98930808
4190468,2.801243128,5.6000065,5.509063721,65.11964138
4190470,0.005991854,-0.138685862,-0.138175964,0.880975914
4190496,1.296338748,-0.649442914,-0.263370216,51.14247812
4190500,0.381956049,-0.193287845,-0.215759277,88.66396321
4190504,0.394007836,0.48737461,0.643722534,87.89346083
4190507,0.116852546,0.103930867,0.132858276,89.91368141
4190508,0.354686195,0.210609077,0.345336914,86.63292426
4190516,0.121835678,0.147654215,0.210586548,18.65843175
4190534,0.274468441,0.270072937,0.263031006,67.45594975
4190543,2.59801019,-1.233452833,-0.488000005,47.5370449
4190546,0.654169961,-0.186910281,-0.159858704,82.96776996
4190548,0.122047445,-2.322696934,-2.343995094,2.246138708
4190549,2.452701589,0.27192688,1.254562378,77.39553804
4190551,0.62367082,-0.1164928,0.000793457,80.11997691
4190554,1.280826651,-0.174146671,0.181959324,70.65309386
4190555,6.348382268,1.901917021,-0.907402456,74.94157506
4190567,0.297106698,-0.173934892,-0.196960449,74.65827949
4190569,0.188210411,0.101234461,0.107269287,89.68395579
4190576,0.244476368,0.730619199,0.811767578,52.57136259
4190579,0.069975457,-3.626417557,-3.576937437,1.375031056
4190583,0.388085888,0.167833645,0.011108398,84.40846527
4190589,3.594120733,1.175194581,0.064645417,80.89616488
4190592,0.188211507,0.179145014,0.173843384,78.01821215
4190594,0.527501949,0.256726747,0.435180664,53.58939861
4190600,0.189169489,0.299032877,0.338623047,80.10755833
4190601,0.114694686,-0.236462402,-0.253738403,40.26327649
4190604,0.225781121,0.101998424,0.08052063,82.85296057
4190609,0.201035674,-0.009887444,0.003067017,83.18170621
4190619,0.45593435,0.002519604,-0.058441162,88.35804744
4190622,0.210834769,0.304888592,0.242126465,87.48017037
4190623,0.11026062,0.062524796,0.041664124,22.93285174
4190627,0.555334044,-0.160275764,-0.080810547,89.76974018
4190639,0.202279402,0.017790993,0.044433594,89.07369486
4190642,0.316944279,-0.059107529,-0.0860672,85.19101131
4190646,0.156987661,-0.021303888,-0.00050354,77.00171572
4190650,0.438431594,0.001480624,0.003837585,88.35804744
4190655,2.61367112,0.003960105,-0.388084412,88.45826626
4190656,1.490552443,0.02676553,-0.342370838,88.55381988
4190657,0.175975407,0.250532266,0.239089966,75.73989503
4190658,0.21093287,0.024961972,0.045089722,86.30647875
4190659,0.091188861,0.05897522,0.07472229,79.91323518
4190660,0.101466533,0.055587455,0.079414368,79.91323518
4190663,0.141327688,0.021626417,0.03894043,85.45006773
4190668,0.1689003,0.022295634,0.040405273,22.05028414
4190670,0.555739031,-0.459567261,-0.591949463,72.24242972
4190673,2.518432695,-3.409768856,-3.926490664,83.1932143
4190674,0.500732086,-0.369181907,-0.118080139,76.23482995
4190679,3.02178778,2.013558524,2.798576355,79.76922838
4190685,0,-3.786575317,-3.786575317,0
4190687,0.040726583,-0.08635781,-0.112472534,6.178358256
4190692,1.820372439,-1.424386034,-1.413776159,87.83267058
4190701,0,-0.543136597,-0.543136597,0
4190711,0,0.447715729,0.447715729,0
4190714,1.740663143,8.267202817,9.021842957,25.7522889
4190717,0.374448895,0.10236177,-0.109428406,66.50840909
4190720,2.496282317,-8.887371093,-9.696516991,89.908951
4190725,0,0.430969477,0.430969477,0
4190726,0.24749994,-0.150758252,-0.166610718,62.2417492
4190731,0.215306279,0.214320408,0.200462341,87.48017037
4190732,0,3.246636629,3.246636629,0
4190733,0.184122379,0.101906632,0.11151886,82.85181968
4190736,5.155178915,-1.186095486,-1.052850187,79.68552579
4190761,0.442132655,-0.571996593,-0.787818909,46.91347595
4190764,0.0202289,0.015407763,0.010429382,11.4718231
4190771,2.963488113,-0.035973473,-0.793677866,47.25042016
4190781,0.293255773,-0.205403286,-0.163131714,86.50592645
4190784,0.398067056,0.46604835,0.28768158,89.89559174
4190785,1.071082343,5.048537447,5.16788435,27.29479162
4190788,0.351221897,-0.214538681,-0.149475098,76.4190338
4190792,0.2951793,-0.062393027,-0.000869751,55.43464077
4190798,0.156657498,-0.025083643,-0.048980713,50.99778689
4190799,0.059168572,0.039410684,0.025695801,32.85403797
4190800,0.254546243,-0.030524163,-0.02973938,89.37247579
4190806,0.112252937,0.139751566,0.14289093,88.85046153
4190814,0.50031324,-0.210568515,-0.069458008,44.74623773
4190817,0.47946986,0.141785307,0.023834229,64.33828474
4190821,0.195436443,0.023234877,0.010437012,89.32654212
4190838,0.239809459,0.04728293,0.043395996,89.92906644
4190844,0.319990624,0.194162399,0.121292114,60.73798658
4190960,0.126755948,-0.215430588,-0.203857422,89.76323458
4190965,0.275110689,-0.17375581,-0.108634949,86.34014174
4190968,1.599393667,1.573893912,1.901748657,43.82275294
4190970,2.06040831,5.140526173,5.066130638,66.19747722
4190972,0.463877658,-0.473316593,-0.596572876,41.20732471
4190977,8.087691424,-0.101440345,-5.758230686,67.16477635
4190985,0.47776392,-0.358070359,-0.026641846,56.29745121
4191002,0.510575628,0.302859999,0.315849304,82.49068383
4191008,0.408014013,-0.247845104,0.003616333,59.35510276
4191010,0.185621061,-0.061183294,-0.077842712,39.6324578
4191014,2.741403043,0.623411014,-0.017410278,61.66678402
4191019,0.345496288,-0.54507762,-0.713470459,83.68067815
4191021,0.017586366,-0.004684448,-0.000610352,1.457645792
4191022,0.459498996,-0.309699613,-0.053039551,79.99748597
4191024,1.792403114,-0.877289267,-0.661254883,33.08415408
4191026,4.323439321,0.186513265,0.554252625,88.8975213
4191029,2.400781868,0.734122101,-0.096067343,19.96299625
4191030,0.419016604,0.19720085,0.048431396,66.10436977
4191037,0.277940951,0.015830717,-0.06187439,89.18590768
4191039,0.316388869,-0.044953383,-0.099914551,87.37851257
4191046,0.347745288,0.224221692,0.112228394,87.62903953
4191051,0.096313236,0.220316519,0.247116089,16.01456309
4191053,0.510715807,-0.647148191,-0.900238037,33.62333452
4191063,4.229574627,0.514657608,0.603338838,87.33935825
4191067,0.049067688,0.26225739,0.263214111,35.64153393
4191069,2.658029135,-2.901114054,-3.233968019,83.60386542
4191072,4.488442866,-1.179279872,-0.397438049,77.78069293
4191073,0.101253692,-0.069285075,-0.067749023,45.93812799
4191082,0.267548565,-0.875030429,-0.947235107,59.5964451
4191086,0.250018149,0.119024227,0.102272034,89.03462167
4191096,0.392592496,0.229631319,0.052001953,51.22343843
4191098,0.430465448,-0.096527117,-0.00692749,79.82808218
4191100,0,0.081405342,0.081405342,0
4191107,0.387983826,-0.224961946,-0.148498535,88.93232854
4191116,0.052301944,0.84441291,0.850967407,0.568811999
4191124,3.09284197,-0.717722076,-0.296707153,88.67454365
4191125,0.032920149,0.0677948,0.067649841,4.700647705
4191129,4.56622905,-0.478165079,0.444722965,83.50433281
4191130,2.537168267,-2.006937993,-2.27331543,89.28495804
4191135,3.606938278,2.01197899,0.36391867,56.6256499
4191137,0.419930905,-0.208484888,-0.326454163,80.0470736
4191141,0.43448693,-0.127618022,-0.055847168,44.17450434
4191142,1.55298464,-1.28184828,-0.463278025,66.52169984
4191145,0.540651532,0.517151624,0.7449646,86.80463902
4191148,0,-0.598568678,-0.598568678,0
4191150,3.598622595,1.563517837,1.589749932,69.46455736
4191152,0.315700899,-0.003255446,0.132324219,87.51115962
4191158,0.283959615,-0.314144859,-0.300331116,45.26201457
4191161,0.242123902,0.024442558,0.062774658,88.14821203
4191165,0.393422652,-0.159414261,-0.185256958,59.09228955
4191168,0.361663008,0.117578166,-0.013183594,89.63251609
4191169,0.263323744,-0.160231649,-0.051635742,88.27948762
4191170,0.223359858,0.230246096,0.319671631,82.93052108
4191171,0.286992024,-0.165736268,-0.113250732,88.52308459
4191197,0.327133505,0.090287738,0.005638123,43.73878406
4191199,0,0.019500732,0.019500732,0
4191200,0.425283377,0.365107174,0.097167969,84.2698796
4191211,0.521005714,0.370174235,0.512534201,30.73777158
4191212,0.535688445,-0.552706516,-0.852127075,81.03294623
4191215,0.243274115,0.076910249,0.048805237,89.63888758
4191217,0.43976088,-0.18677228,-0.091018677,88.00823122
4191224,0.233047606,0.149908694,0.075866699,89.81573456
4191228,0.22069308,0.003435192,0.020523071,69.33640123
4191230,0.190777654,-0.001635662,0.020446777,53.83583234
4191232,0.180879416,-0.016612591,0.020996094,74.25520357
4191234,0.220784509,0.004459948,0.020584106,69.33640123
4191235,0.179486342,-0.000738415,0.020721436,71.2194936
4191238,1.369287612,9.356958008,9.611816406,9.665331563
4191240,1.410353513,9.022757038,9.611816406,19.85123022
4191241,1.418027998,9.271907616,9.611816406,11.81815687
4191242,4.451421237,6.285737406,5.790679932,41.67622871
4191245,4.230531615,7.132700864,8.237556458,24.85520751
4191246,0.161210772,0.000235063,0.020759583,62.0705501
4191248,0,-1.144424438,-1.144424438,0
4191263,0.23865784,0.003848736,0.053153992,88.91957219
4191269,0.187079087,-0.179290959,-0.234710693,85.71184902
4191271,0.357611522,0.215945138,0.181671143,89.55601944
4191275,0.372534437,-0.063151238,0.023490906,56.77489625
4191278,0.291298112,0.079463689,0.024597168,69.88864405
4191281,3.959158863,0.749435719,0.137666598,83.79412225
4191282,3.22711707,1.545404158,0.293289706,88.74642653
4191285,4.14920747,-1.191404322,-0.717063397,87.08003471
4191286,0,0.011810303,0.011810303,0
4191290,0.3979794,0.200744022,0.010124207,80.32711752
4191293,0.394339358,0.642692683,0.746200562,40.46862942
4191309,0.462441161,-0.220740309,-0.094139099,84.65152558
4191310,2.888234931,2.086086407,0.823000014,79.59528061
4191313,0.389345597,-0.077942146,-0.043289185,73.53390585
4191319,0.488553307,-0.44343772,-0.290969849,82.67805593
4191325,0.406589292,0.007858463,-0.016929626,89.77997094
4191327,0.182788923,0.031973872,0.088409424,79.35939299
4191328,0.432138461,0.306074089,0.199645996,65.72215905
4191333,5.073254435,4.405852727,4.636863708,66.61099838
4191337,0.209263872,-0.097980556,-0.085693359,89.74291407
4191350,0.496354591,0.471082312,0.54209137,86.00019093
4191362,0.353418958,-0.026487871,-0.131492615,87.41144577
4191365,0.343941012,0.075232907,0.019470215,83.68788562
4191367,0.532279923,-0.071373092,-0.10295067,11.5883097
4191368,0.300176162,-0.00579291,0.003036499,89.83076441
4191374,0.447605123,-0.274345097,-0.01373291,76.80139453
4191375,0.008507357,0.028876276,0.02911377,2.607164802
4191376,0.34197684,-0.283803935,-0.291946411,62.25870644
4191377,0.554356287,-0.269494091,-0.267951965,89.93330949
4191391,0.339912921,-0.102107795,0.017791748,89.63642372
4191396,0.121574453,-0.888793202,-0.832138062,3.231509854
4191399,0.328780138,-0.03617276,-0.003875732,62.0361241
4191407,6.248961382,-3.515002138,-8.743624687,89.14426332
4191410,0.257988853,-0.031760583,-0.076339722,51.92446019
4191421,0.201198107,-0.008807631,0.018310547,88.45534319
4191423,0.164194038,0.212570756,0.334030151,3.162553507
4191424,0,-0.274276733,-0.274276733,0
4191425,2.888196988,4.131241095,6.090250492,76.41736691
4191429,0.381285648,0.107953726,0.028945923,52.00149833
4191448,0.172671017,-0.015154837,-0.053390503,89.31370401
4191453,0.356336904,0.077959358,0.143936157,82.88865407
4191470,3.982794665,3.000419772,0.593765259,86.74800648
4191477,0.208349076,0.068163501,0.002700806,87.6179752
4191479,0.239754827,0.020438565,-0.003677368,88.4925101
4191483,0.233786644,-0.244262197,-0.167304993,70.73576446
4191485,0.226043314,-0.121455528,-0.124275208,88.49605503
4191490,0.386555263,0.107373391,0.069549561,70.07481274
4191492,0.111431065,0.120067325,0.128372192,41.88117221
4191497,0.51336363,0.275750316,0.4375,59.18589475
4191498,0.702621266,0.969494496,1.021126986,30.95838875
4191500,0.354006428,-0.116600322,-0.004196167,88.36082807
4191510,0.87816775,0.804273038,0.308868408,57.7201011
4191512,0.346549428,0.295256345,0.228256226,79.26452299
4191514,0.314333544,0.056024156,-0.035018921,89.36172919
4191516,0.561438283,0.469729693,0.510665894,80.51709109
4191518,0.392920199,0.150524319,0.152786255,89.52399188
4191520,3.11639926,-3.64111915,-4.037818909,78.81851297
4191523,2.605124325,7.018350269,5.625176907,11.13959199
4191525,0.262655213,-0.916493734,-0.993881226,0.095536471
4191532,0.28114783,0.018717658,0.017532349,34.34931429
4191533,0.015913475,-0.042606953,-0.037261963,7.722491876
4191535,0.022491056,0.041732883,0.043304443,10.35409705
4191545,3.397733639,-1.717425637,-1.285751343,84.57470388
4191547,4.120071941,0.144753186,0.356811523,46.20891628
4191548,0.181272696,0.101286634,0.127822876,89.29506352
4191554,0.344809473,0.006533643,-0.076934814,89.96700455
4191555,0.392294144,-0.300057647,-0.110015869,69.77816696
4191564,0.509310243,0.339833664,0.595046997,81.62054479
4191567,0,0.847625732,0.847625732,0
4191578,0.128350864,-0.023066203,-0.001853943,76.78863026
4191587,0.374900335,0.439560027,0.546676636,60.08236117
4191611,0.126092685,-0.032446086,-0.028457642,34.05286305
4191616,5.376289626,-0.170667774,-1.624515474,71.53579842
4191619,2.587714373,1.822337598,1.008377075,80.39235712
4191623,0.259143038,-0.002289581,0.008415222,87.16961105
4191625,0.383193156,-0.536322647,-0.632652283,83.38880939
4191626,2.038194024,-0.546378885,-0.193936259,74.51271597
4191631,2.844247103,-0.395776864,0.075999998,60.03777385
4191636,0.225501159,0.134330687,0.084457397,89.71937476
4191644,0,-0.536000013,-0.536000013,0
4191646,2.878113011,0.444502464,1.980004787,34.04799834
4191647,0.034843971,-0.009658276,-0.018600464,48.52028754
4191656,3.661212007,2.496974721,3.449531555,75.46436847
4191666,0.318234607,0.138072169,0.018325806,78.57006327
4191668,0.543770184,-0.582397319,-0.956787109,41.98444189
4191670,0.292381938,0.640298847,0.701675415,34.79165424
4191673,0.104305491,-0.191088885,-0.183609009,1.176220173
4191677,0.240192599,-0.175840867,-0.15234375,88.50169337
4191678,0.270474961,-0.187363937,-0.166229248,88.50169337
4191679,0.319540437,-0.190763004,-0.150367737,86.60745064
4191680,0.596964583,9.068836399,9.158101082,2.524399588
4191685,0.300709524,-0.154814524,-0.142593384,86.60745064
4191693,0.162153927,-0.193831334,-0.166488647,77.75518917
4191694,0.124206873,-0.102809831,-0.119544983,89.75906751
4191701,0.459686279,-6.28237915,-6.28237915,0.271259766
4191708,0.360399704,-0.074640821,-0.108406067,54.5595466
4191710,0.117753479,-0.337265964,-0.345962137,3.590643276
4191711,0.126517141,-0.024975716,-0.032905579,80.80762034
4191715,0.20168766,0.059244029,0.053741455,81.50581399
4191718,0.441365524,-0.828643036,-0.892333984,1.891147196
4191720,0.288691047,-0.09055565,-0.074859619,88.1485629
4191723,0.109700356,0.003590393,-0.017059326,16.55475696
4191726,0,3.952826977,3.952826977,0
4191727,0,-2.303221941,-2.303221941,0
4191732,0.223574043,-0.459768945,-0.53049469,87.42824185
4191733,0.403534123,-0.945599918,-0.888519287,39.66724914
4191737,2.647836365,-0.9454587,-0.919401526,85.01212898
4191742,0,-0.869689941,-0.869689941,0
4191745,0.174559608,-0.040906686,-0.012870789,72.91734407
4191747,0.305465476,0.062056864,0.024551392,88.13590954
4191764,0.031375341,-0.009682697,0.005584717,9.423180164
4191768,0.457603415,-0.040020012,0.016357422,79.97737534
4191770,0,-8.480262756,-8.480262756,0
4191776,0.511716237,-0.087338192,0.013305664,76.42122455
4191778,0.150122478,0.087198213,0.135040283,55.95537015
4191784,0.215579733,-0.925222391,-0.931182861,36.76186884
4191786,3.429011183,-1.379917914,0.0005,59.82638175
4191787,0.186380453,0.120056414,0.030731201,83.94514446
4191794,0,0.017120361,0.017120361,0
4191796,0.268888476,-0.237684869,-0.322219849,89.06831361
4191798,0.260605112,-0.313791072,-0.369949341,86.13874483
4191803,0.493251601,-0.16836035,0.000534058,54.26207521
4191804,0.088603397,-0.058858945,-0.057067871,67.16458117
4191810,4.489341716,-3.878126636,-0.708705336,37.19281562
4191812,0.010760131,-0.071920395,-0.073974609,1.022201937
4191818,0.395633492,-0.222894891,-0.23878479,79.85066567
4191823,0.248604175,-0.025988323,-0.109153748,84.30228399
4191845,0,0,0,0
4191846,0,-0.355499268,-0.355499268,0
4191852,0.195544509,0.06567852,0.019790649,45.91108391
4191858,2.958338289,-0.839146684,0.142410278,87.14488574
4191860,2.0939362,-0.924594455,-0.587997437,76.47247024
4191863,0.554149966,0.046542875,0.074035645,87.20840986
4191866,3.092565746,-1.573332571,-2.614468336,82.14789781
4191869,0,-7.540161133,-7.540161133,0
4191876,0.174496891,-0.054251415,-0.039077759,85.62042597
4191882,3.934115675,-0.423941202,0.458999991,87.05960748
4191887,0.215701874,0.009605461,-0.019355774,89.95924907
4191889,2.452085478,-0.378218336,0.708683729,57.96620739
4191890,0.136650373,-0.290327032,-0.328033447,18.10435016
4191891,1.664078834,1.370381197,1.294066072,18.34143354
4191896,0.41003972,0.350592132,0.25100708,74.8345426
4191898,0.236092491,5.137478129,5.205001831,6.34494591
4191900,3.116708659,-0.099937265,-0.142454997,70.92400391
4191901,2.663086774,1.944532808,2.438494444,89.97022618
4191911,0.302409037,-0.125964265,-0.027565002,89.85672169
4191917,0.415408219,0.055853587,0.172225952,87.79997932
4191920,3.276451977,7.976872848,8.658630371,22.79182144
4191928,0.09606289,-0.022382994,0.02519989,34.17428514
4191931,0.481609792,0.445009518,0.573150635,73.06059884
4191940,0.297964047,0.067027417,-0.067375183,76.10001425
4191948,0.402805992,0.262992404,-0.005302429,70.79831199
4191952,0.427681545,0.268629347,0.021148682,62.84139409
4191961,3.215797871,-1.096850603,-0.605733037,88.25491879
4191972,0.212758528,-0.291860367,-0.326019287,69.08086015
4191974,0.392483026,-0.198161777,-0.166152954,88.27302363
4191975,1.189905234,1.293768839,1.624515414,30.59347595
4191976,2.917203265,1.637512729,1.426944256,85.79662049
4191982,0.288187325,-0.129973796,-0.179481506,84.2024641
4191984,0.269180846,0.028837427,0.006820679,88.26173096
4191987,0.483431962,0.453196616,0.387565613,89.55388747
4191992,0.237311494,0.041264852,0.000839233,72.44387611
4191998,0.316966127,-0.172940777,-0.226081848,56.15913973
4192002,0.473236099,-0.704712053,-0.793022156,41.2629827
4192003,0.33490315,-0.142162444,-0.007659912,38.34072725
4192005,0.344097644,-0.022431786,-0.145065308,59.42828564
4192011,3.555849261,0.61864906,0.803184509,88.44203745
4192016,0.148690324,-0.057450819,-0.02986145,85.56426449
4192017,0.186099488,-0.035850966,-0.031448364,85.80415479
4192021,0.505640717,-0.114419277,-0.086975098,88.76142871
4192030,1.501584854,2.941086959,2.684000015,79.52100147
4192031,0.327133702,-0.103429351,-0.230895996,89.66184272
4192034,0.124746281,0.046494255,0.026817322,66.05693924
4192050,5.186744884,1.979065556,0.260165006,81.04855637
4192051,5.760467196,-4.839731583,-4.158855438,89.24400388
4192052,0.276779969,-0.013872325,-0.003379822,89.49286006
4192057,0.114460873,0.115673247,0.116859436,27.83306754
4192068,0.275233553,-0.024297017,-0.145797729,80.61240423
4192071,0.034509384,-0.932733709,-0.931091309,1.453658004
4192076,0.564865903,-0.219292643,-0.481872559,66.63014285
4192079,0.37123427,0.310208701,0.154724121,89.17633637
4192084,0.148445129,6.686149597,6.686149597,4.468858271
4192085,0.346048645,-0.007245849,-0.050689697,74.95229823
4192086,1.212416742,-0.143006021,-0.382999986,86.19515866
4192091,2.098359784,-1.165627872,-1.361633301,79.76027932
4192101,0.235761637,0.218637345,0.219314575,87.05009641
4192103,0.42250977,-0.035309987,-0.020347595,87.74072643
4192108,0.523327816,-0.590232056,-0.770507813,61.63436138
4192116,0.302327334,-0.242884706,-0.223602295,82.70899216
4192127,0.024135036,-0.491062759,-0.48878479,5.991667725
4192131,0.10319544,0.96346857,0.984390259,14.59216832
4192142,1.159596033,-9.191381005,-9.181164742,4.159152642
4192157,2.839697404,2.177417611,1.229422569,76.06104697
4192158,0.254992427,0.124740797,0.078475952,88.99353156
4192160,0.531202222,-0.12938775,-0.089385986,89.59094776
4192173,0.15978425,0.097393368,0.063095093,88.34090243
4192174,0.086050509,-0.188882446,-0.210891724,0.604580969
4192175,0.525408469,0.207950768,0.126373291,89.74236249
4192176,4.27091125,2.454602619,-0.636627197,40.45501838
4192177,0.217026122,0.166097747,0.229843367,11.42289145
4192187,0,3.752911091,3.752911091,0
4192191,0.46595247,-0.266109699,-0.118637085,64.89297167
4192192,0.319208988,-0.11241212,-0.089958191,89.58933692
4192203,0.097976011,-0.201970812,-0.20476532,23.84614019
4192212,0.755385251,0.604194611,0.93409729,81.98324555
4192218,0.211919112,-0.894722784,-0.948806763,8.82147094
4192227,0.398520431,-0.46933994,-0.636520386,9.958559862
4192228,0,-5.635955811,-5.635955811,0
4192248,0.159271868,-0.433006832,-0.416000366,5.126702892
4192251,2.184112278,1.171426856,0.823605359,75.67008767
4192260,0.544559206,-0.250145709,-0.258224487,81.01708749
4192263,0.40980549,-4.6187414,-4.590438843,11.89102769
4192276,0.586923642,0.790972429,0.823059082,88.85658957
4192277,0.54548221,-0.08005023,-0.08380127,14.63257644
4192280,0.361828162,-0.010632801,-0.162796021,54.04752415
4192283,0.238015509,0.015553164,-0.020874023,76.74610513
4192284,0.144767002,0.043181356,0.006515503,44.4877748
4192291,0.243769049,0.134732534,0.147651672,89.14517123
4192292,0.17964011,-0.057718854,-0.090248108,37.68535546
4192295,0.257250169,-0.120980658,-0.000228882,81.35435284
4192305,0.057687468,0.000619507,0,6.41775787
4192312,1.095358409,4.685186738,5.181052685,11.86310537
4192317,5.023278455,6.750208925,9.404711723,28.07469058
4192318,0.96867245,0.899823557,0.861912608,20.84289415
4192323,3.520884486,0.468596902,-0.533923268,70.96298553
4192325,0,1.89620769,1.89620769,0
4192330,0.399338565,-0.282252381,-0.365402222,75.62826616
4192347,0,-1.3891114,-1.3891114,0
4192349,4.704895761,-4.97636292,-8.045028687,78.82366706
4192354,0.03769543,0.003574223,0.004524231,16.72653481
4192356,2.927083684,-1.484424073,-0.213090464,36.62840161
4192359,0.156656913,0.044518438,0.065098349,11.79401608
4192368,0.354952577,0.138704547,-0.020355225,81.76538914
4192371,0.270697481,-0.074844313,-0.003189087,39.83033537
4192374,0.190110733,-0.83864596,-0.788009644,47.02048385
4192376,0.162896728,0.120107789,0.118766785,88.94492644
4192383,1.157106788,9.341647287,9.345766068,11.54815565
4192384,0.278630811,-0.142064195,-0.061637878,78.11050289
4192390,2.310379302,0.444776281,1.093643188,68.08268369
4192391,0.244417011,-0.063023821,-0.013336182,87.15477368
4192395,0.088927034,-0.085940252,-0.098434448,23.55829143
4192397,1.982694625,0.976145205,0.494979858,28.8788857
4192398,0,0.022506714,0.022506714,0
4192399,0.474806865,0.070716858,-0.201972961,0.570370441
4192414,0.037910461,-0.042472839,-0.042472839,4.710605936
4192415,0.296504789,0.191415136,0.009887695,83.43682421
4192420,0.031024451,0.217560904,0.215194702,0.317829801
4192422,0.41324618,-0.260939165,0.013687134,82.33346117
4192424,0.32579335,0.58115496,0.74256897,39.88750108
4192438,0.181955469,-0.019544805,0.030899048,63.93033311
4192441,0.172156812,0.11596192,0.069602966,89.62431284
4192443,0,1.767074585,1.767074585,0
4192445,0,0.842758179,0.842758179,0
4192447,0.276377292,0.084069293,-0.01210022,55.9777896
4192448,0.534711114,1.2164939,1.306037068,9.211917005
4192449,0.129481372,-0.085153465,-0.15447998,43.138271
4192455,0.304590665,0.087031084,-0.00088501,89.45770884
4192456,5.217494369,-2.898729821,-2.783259511,76.35558944
4192462,0.091801076,-0.034568787,-0.003356934,27.8467553
4192463,0,-1.005595446,-1.005595446,0
4192471,0.136205685,-0.064007499,-0.026924133,89.17282349
4192473,0.323033122,0.810421443,0.911216736,49.2001153
4192478,0.262971085,0.061338889,-0.044975281,87.16960458
4192480,2.961189811,0.096021578,-0.366312861,29.88337805
4192481,0.194183342,-0.029302565,0.081222534,67.28672239
4192485,0.337007673,-0.494655325,-0.549728394,82.56805529
4192490,1.380263636,1.828513169,1.844165087,35.5636576
4192492,0,0.05279541,0.05279541,0
4192496,0.208209907,0.177652898,0.249145508,79.70469117
4192498,0.297723133,-0.043395357,0.004623413,87.48026529
4192499,0.351849207,0.487470529,0.56048584,89.38454473
4192502,0.073168628,0.066634353,0.099945068,38.39624878
4192510,0.171133631,0.277788536,0.281845093,60.80233249
4192514,0.332804241,0.170474449,0.095069885,87.0025883
4192515,0,-0.043807983,-0.043807983,0
4192518,0,-9.194000244,-9.194000244,0
4192524,0.311089867,0.856252689,0.964904785,19.22742033
4192526,3.789256594,-4.951539871,-2.786935925,40.59370165
4192530,0.557812639,-0.032012191,-0.04019165,69.14313569
4192533,2.804237756,-1.711227902,-3.139995575,74.23249116
4192539,0.370859734,0.161515673,0.069602966,65.97555813
4192540,0,-0.128738403,-0.128738403,0
4192549,0.705764753,-0.218974011,-0.442123413,79.70744134
4192550,0.419470616,0.46962131,0.35559082,84.72143021
4192552,0.579171181,0.068313836,-0.035362244,89.85936458
4192553,0.085044861,-0.445594788,-0.445594788,0
4192559,3.320581753,-0.834554333,-0.044499999,40.91692414
4192560,0.230736363,0.154393514,0.162124634,56.69022622
4192563,3.411452389,-0.507269234,-0.652488708,76.82972228
4192566,0.272100222,-0.024107724,-0.059783936,86.69951638
4192569,0.449719479,-0.105590413,-0.01008606,84.02647749
4192577,0.141996424,-0.786242398,-0.82598877,6.793507073
4192580,0.256017748,0.335368414,0.368469238,50.3377967
4192586,0.079032962,-0.059544848,-0.013626099,32.19375378
4192597,0.011206874,0.141990662,0.139625549,1.655158274
4192598,0.570102855,-0.323124422,-0.126045227,84.09849233
4192600,0.202918834,-0.037963149,-0.053649902,87.98233844
4192606,0.382461844,0.024716805,0.015655518,87.76029456
4192612,1.86316418,-0.895004168,-0.992426902,88.13903692
4192614,0.23598739,-0.249465903,-0.268806458,79.43407246
4192617,0.025689493,0.101902282,0.101837158,15.80588267
4192631,0,2.565999985,2.565999985,0
4192632,0.055320263,0.070959091,0.050262451,6.960830846
4192634,0.06529216,0.386913593,0.392379761,6.160014921
4192647,0.153898671,0.098154966,0.107429504,17.42332244
4192649,0,-1.051498413,-1.051498413,0
4192655,2.745185379,0.692332577,0.50994873,89.08758939
4192662,0,0.859403491,0.859403491,0
4192664,0.418162067,0.086110916,-0.065093994,89.54794383
4192666,0.296718054,0.003150222,-0.018226624,85.03461916
4192667,0.238352821,0.452888747,0.537567139,88.55295404
4192668,0.241872724,-0.069194535,-0.106918335,88.57470315
4192669,0.272672268,0.290691517,0.396118164,89.96333837
4192670,0.008110722,-0.188376835,-0.187446594,1.221956855
4192672,0.486293359,0.010378739,-0.016357422,88.40083687
4192678,0.343589344,-0.155070652,-0.044998169,88.8750727
4192691,0.247884133,0.735154279,0.840370178,27.49258928
4192694,3.497019416,-1.619568617,-1.723825276,81.84866709
4192695,2.312232598,-0.268230401,-0.195127435,65.71101872
4192697,0,1.157596469,1.157596469,0
4192700,0.61816089,0.249342662,0.198718742,89.92901387
4192703,0.199764272,-0.210175147,-0.393379211,7.115844998
4192704,0.227341916,0.127547437,0.093315125,87.0037173
4192708,0.274350815,-0.160211906,-0.083076477,48.29376542
4192710,0.604135272,-0.531821499,-0.926139832,86.04497108
4192711,4.640759617,-1.08742843,1.34800005,45.38351736
4192718,0.398665639,-0.254186261,-0.378128052,86.76497041
4192720,0.360980768,0.102580992,0.001953125,54.90930589
4192723,0,0.374145508,0.374145508,0
4192726,0,0.831071794,0.831071794,0
4192727,0,8.387358665,8.387358665,0
4192729,0.393831228,0.046742107,0.077003479,83.74131627
4192741,0.381961878,0.677663993,0.759841919,38.74834
4192755,0.114180102,0.635617491,0.656936646,71.52138883
4192762,0.371436499,-0.169376264,-0.279754639,86.67382012
4192763,2.033303702,2.594090726,2.710235596,88.77947102
4192765,0.46212057,0.201965194,0.060874939,64.27605053
4192772,3.275984986,-0.164962087,-0.508415222,87.75193437
4192773,0.255618781,0.308089104,0.290100098,88.03380138
4192774,0.424487035,0.196049635,0.421691895,78.67393735
4192775,0.294138374,-0.065745748,-0.015625,88.87570505
4192778,0.532557657,-0.28060928,-0.016647339,76.87854946
4192781,3.303688607,3.285818943,3.676597595,86.41247639
4192782,2.871604826,5.677616521,7.225708008,85.12825466
4192786,0,0.361524463,0.361524463,0
4192792,0.47346984,0.303696794,0.39213562,66.11236819
4192794,0.444367641,-0.575962787,-0.811843872,65.43024864
4192799,0.046321166,-0.053853263,-0.050880432,11.49023022
4192800,5.259927655,-5.637241996,-5.656474352,53.94833134
4192802,0.455717064,-0.307372433,-0.335197449,75.49816762
4192809,0.199049899,-0.044871561,-0.011276245,88.4216097
4192813,3.798084052,-0.907588813,-1.822043121,89.25671075
4192815,0.292130237,-0.573972019,-0.686943054,63.71415362
4192820,0.150507034,-0.224606047,-0.220266551,7.725146042
4192826,0.190804525,0.921990987,0.936698914,39.82211086
4192835,0.299661446,-0.486576702,-0.413970947,37.04399232
4192844,0.034358599,0.065646963,0.057632446,8.625079284
4192846,0.06483663,0.016414642,0.03112793,7.461820307
4192852,3.664812759,5.560607392,7.163000107,42.93665846
4192855,0.165914243,-0.008232092,-0.027023315,89.44285839
4192856,1.945149742,-0.372688725,-0.046686934,89.69314835
4192877,0.460407532,0.198454247,0.085510254,87.00789945
4192881,0.241045503,0.047049075,0.040710449,88.01125927
4192885,0.881254863,0.193683203,0.920791626,83.86696933
4192904,0.428122519,0.06165011,0.007369995,89.51687552
4192905,0.453254381,0.60013378,0.691619873,65.49376295
4192910,0.159828461,0.913379669,0.963630676,19.47584606
4192911,0.091989647,-0.059688578,-0.063674927,28.36373031
4192918,0.268158793,-3.660846114,-3.660846114,0
4192919,0.405909365,-0.417620711,-0.636611938,85.1685873
4192922,1.511740031,-3.109630916,-1.992036581,9.62560428
4192923,0.198263524,0.223582802,0.215042114,52.61975173
4192929,0.031226516,-0.187164085,-0.188293457,4.232509318
4192930,5.56680711,-2.577688584,0.77991119,49.13008922
4192934,0.324820957,-0.523416581,-0.577430725,9.017580706
4192936,0.026398159,-0.53979187,-0.527114868,1.298951032
4192937,0.462007357,-0.265507216,-0.149780273,85.7545378
4192939,0.268922343,0.533748033,0.491455078,52.27589759
4192945,0.070167542,0.023002625,0.023002625,8.13881961
4192964,0.146910077,-1.075026158,-1.087669373,3.881754302
4192965,0.250752801,0.180440575,0.20161438,41.52208113
4192966,0,1.63643682,1.63643682,0
4192971,2.53678664,6.97670369,7.499836922,42.10830551
4192972,0.949866556,0.274649126,0.328005642,87.8619656
4192973,0,0,0,0
4192974,0.33945737,3.26904301,3.275267839,5.809728821
4192975,0.023664705,0.077215949,0.079246521,12.62430414
4192976,0.044207501,0.753941854,0.761322021,0
4192978,0.312409864,0.146510269,0.032485962,78.15210063
4192981,0.320334757,-0.601474609,-0.66443634,66.63586071
4192984,0,0.512374818,0.512374818,0
4193004,0.196370628,0.034902233,-0.005729675,87.57535048
4193012,2.125255997,-0.144370364,0.396240383,42.97924925
4193021,0.503275408,-0.034425291,0.410522461,55.56595304
4193022,0.369069562,-0.227702652,0.007736206,54.78827824
4193024,0.296872473,-0.02988106,-0.084793091,84.88391801
4193037,0.517634144,9.819249948,9.960000038,1.553110337
4193038,0.190971375,-0.190971375,-0.190971375,0
4193042,0.282464386,-0.096025357,-0.075271606,89.96775689
4193043,0.42768144,-0.188473528,-0.006973267,89.49756789
4193044,0.345518972,-0.250660834,-0.158462524,76.0244778
4193047,0.551105226,0.258019818,0.081283569,86.05226057
4193048,0.029414049,-0.01544299,-0.020095825,5.242238353
4193052,0.051494304,0.692543989,0.691945434,1.501387664
4193053,0.457795746,-5.705502319,-5.628173828,6.84590749
4193055,1.285840079,-0.954644629,-0.675395548,76.72880493
4193059,0.259509349,-0.911850301,-0.955215454,25.13682321
4193064,0.573111728,0.168545824,0.281173706,89.76800987
4193066,0.334950044,0.061642788,0.058410645,89.87191802
4193067,0.241639745,0.076968837,0.089897156,89.87191802
4193068,0.350074396,0.09623829,0.096084595,89.87191802
4193071,0.351692835,0.096506559,0.097015381,89.87191802
4193082,0,0,0,0
4193086,4.034836309,4.33166566,4.934600353,88.20236982
4193088,0.304623433,0.149585825,0.110313416,88.65541994
4193090,0.012669074,0.925941467,0.92590332,0.197334777
4193091,0.262781868,-0.383439284,-0.515838623,68.96558421
4193092,0.315231153,0.231329499,0.251815796,87.26257372
4193096,0,2.583343744,2.583343744,0
4193103,0,1.570000052,1.570000052,0
4193104,0.091815153,0.016601469,0.040344238,43.3889975
4193115,3.929078095,1.018490724,-0.785298169,56.22378833
4193120,0,-0.175216675,-0.175216675,0
4193125,0.294441194,-0.904961979,-0.917030334,15.45645675
4193127,0.32308301,-0.268735398,-0.072845459,19.9872994
4193131,3.073710636,0.208206873,0.439336002,80.71826981
4193135,0.205685791,0.094298802,0.033538818,89.4093595
4193139,0.521862153,0.622220841,0.961303711,75.52461586
4193141,0.282890467,-0.111136447,-0.071708679,89.80423697
4193145,0.049185398,0.358015408,0.357345581,7.071735856
4193150,0.519182502,-0.290615784,0.018859863,77.27366895
4193154,0.256435183,0.13891991,0.06678009,89.68876772
4193160,0.517922359,-0.321973927,-0.405349731,85.0499081
4193166,0.41191,0.687196682,0.756126404,78.37680382
4193169,0.501781522,0.11798511,0.100463867,89.98631029
4193172,0.243126761,-0.020316744,0.060203552,83.5853447
4193176,0.235369915,0.12368098,0.046676636,89.7409161
4193177,0.266534248,-0.126312448,-0.018569946,89.46913036
4193179,0.383793947,0.561764022,0.540168762,89.57038984
4193190,0.340870037,0.067696643,0.094955444,69.06505273
4193196,3.934622039,-5.729161795,-7.97857666,56.01242371
4193199,0.288249156,1.18524508,1.216254473,22.64863822
4193200,0.521951874,0.272832462,0.149597168,89.78034819
4193206,0.011683409,0.012302165,0.013427734,11.41749047
4193208,1.30635979,-1.858216054,-1.042313993,12.75080952
4193212,0.109010682,-0.164505672,-0.159011021,3.858264562
4193213,0.175020646,-0.027617327,-0.011734009,86.62391224
4193214,0,4.254172325,4.254172325,0
4193216,1.419636336,-0.886043238,-0.452031016,83.70549624
4193227,0.239839775,1.722716961,1.684999943,3.287890075
4193233,3.610774166,0.630777778,-0.685000002,31.3009359
4193235,0.421573034,-0.447271643,-0.284591675,78.15460636
4193239,0.250049755,0.634589023,0.71711731,46.19793254
4193242,0.074072796,0.421590784,0.40222168,3.955969424
4193243,3.545452397,-0.441915696,0.992396593,80.40566237
4193244,0.120104058,-0.05510059,-0.120361328,44.02557407
4193245,0.400189325,-0.030151872,0.004318237,81.923026
4193255,0.159214812,-0.141679536,-0.152618408,89.84087897
4193265,0.245601202,-0.106900356,0.016365051,89.17235186
4193267,0.277748274,-0.161055298,0.009277344,72.38332733
4193268,3.069792577,0.747135646,0.198547363,86.81386162
4193269,0.232800237,-0.192884049,-0.191688538,85.0089248
4193289,0,2.545036316,2.545036316,0
4193297,0.129314439,0.007565816,0.010574341,39.5177838
4193301,0.0360352,-0.020317678,-0.025695801,7.984395059
4193303,0.290721905,0.166486881,0.081825256,89.40616952
4193304,0.065840483,5.945999861,5.945999861,0
4193306,0.469622052,0.013184287,0.188186646,81.08141383
4193311,0.27593543,-0.137862709,-0.052674048,69.22841309
4193314,0.093383625,0.095648193,0.081192017,4.358138984
4193318,0.412562828,-0.452415525,-0.472473145,58.09085329
4193321,0.483613007,-0.493126268,-0.34223175,75.58425825
4193325,0.124991933,-0.008356159,-0.011108398,89.20764352
4193327,0.445172447,0.447768941,0.326568604,73.44449971
4193330,0.368979663,0.097446826,-0.008010864,68.0923459
4193335,0.293030969,-0.050970778,0.031860352,85.37167693
4193344,0.125169181,-0.010026633,0.016441345,89.56758038
4193345,0.151290509,-0.343661768,-0.338340759,60.77454616
4193354,0.347934795,0.042567384,0.121902466,87.55641692
4193364,0.252893264,0.12725139,0.012649536,63.94057397
4193365,0.08759607,-0.041331651,-0.012550354,60.80867832
4193367,0.580645264,0.971262333,0.954089403,20.60595283
4193393,0.134946292,0.020541191,-0.002052307,0.654057313
4193394,0.159915791,0.230779484,0.253044128,74.56605194
4193397,0.013295808,-0.001106687,0.000946045,11.69113357
4193400,0,2.37624526,2.37624526,0
4193409,0.214972972,0.089112752,0.111251831,45.55895847
4193414,0.2914805,0.923932205,0.985809326,58.3550921
4193422,0.410135046,0.126338764,0.037750244,87.09607252
4193430,0.227541152,0.056290498,0.001792908,39.11046663
4193431,0.031174997,0.331417508,0.329528809,4.473132613
4193436,0.107561483,0.037088037,0.015396118,37.53099048
4193438,0,2.347119331,2.347119331,0
4193439,0.094869612,-0.022385444,-0.034942627,35.20609933
4193444,0.356972407,-0.104648474,-0.025238037,68.71470691
4193447,0,-0.530315697,-0.530315697,0
4193449,2.123224567,-1.051503466,-1.491587639,57.52597867
4193452,0.811491055,3.725055695,3.597938538,11.35665247
4193453,3.473028435,-1.7406181,-1.987518311,46.55408758
4193457,1.915281612,3.005956512,3.29400003,87.29958499
4193461,4.192840721,-5.129437704,-5.954561234,18.99878504
4193470,2.723557806,-0.095160026,1.321599364,44.19223358
4193471,0.370863568,0.934613982,1.063025594,43.93838498
4193472,1.808357205,-1.110038969,-0.536301196,31.47870927
4193476,0.289385284,-0.6380415,-0.712257385,60.27142297
4193477,0.018999994,0.421000004,0.421000004,0.487542539
4193478,0.894318739,-0.223590702,-0.889160156,84.68148504
4193481,0.510758034,0.039239955,0.126937866,79.43726738
4193482,1.328371932,-0.005898452,-0.17956543,23.28993675
4193483,0.221171855,-0.735834736,-0.80304718,41.35238354
4193486,0.043186925,0.304635075,0.286300659,6.381223809
4193488,0.116620489,-0.580089616,-0.618934631,69.8436726
4193490,0.130609491,0.839640201,0.824554443,13.74701646
4193493,0.14052203,0.596056019,0.642669678,3.158106476
4193495,0.28456561,-0.101507664,-0.093521118,85.57797335
4193506,0.341049494,-0.143538678,-0.039100647,66.17301988
4193514,0.212345975,0.0265818,-0.036437988,1.285438357
4193515,0.316978983,0.060804066,0.023422241,88.9443626
4193516,0,-0.733515978,-0.733515978,0
4193517,0.337731666,0.058434575,0.018791199,50.08193623
4193521,0.039985713,-0.045611064,-0.059028625,10.83555586
4193522,0.021913512,-0.210713689,-0.213027954,7.035194208
4193533,2.247361333,0.48558093,1.940500438,46.18463207
4193536,0.648355292,-0.445974208,-0.603233337,24.43390329
4193538,0.182964607,0.039302716,0.007873535,73.66446132
4193540,0.473807006,0.390399133,0.005104065,48.39629749
4193543,0.221000502,-0.03172475,-0.000152588,42.99023289
4193544,1.190090314,0.272604922,0.354341865,25.91551545
4193547,1.250140122,-1.345259689,-1.63763392,39.60998242
4193548,1.155538281,9.031451122,8.581000328,7.450512853
4193549,1.702605959,9.086825726,9.652999878,46.78265753
4193554,0.299302721,-0.172714518,-0.284988403,62.42735644
4193556,0.69435217,1.818052673,1.869928598,10.46151427
4193558,0,-0.035171509,-0.035171509,0
4193559,0.403375072,-0.086022821,-0.206054688,86.5289078
4193567,3.273928976,2.166260585,-0.088585466,47.14609525
4193573,0.296959765,-0.11098884,-0.100532532,88.90387584
4193575,0.077422244,0.018827289,-0.004013062,49.95775268
4193580,0.567472963,0.1468455,0.363922119,68.5213887
4193582,0.234534444,-0.05624552,-0.042221069,87.18822657
4193588,0.223444508,-0.805855887,-0.861198425,22.27678756
4193590,0.084257364,0.018376918,0.011749268,0.577895082
4193592,0,-0.035903931,-0.035903931,0
4193593,0.14339834,-0.013819599,-0.010063171,36.23638663
4193595,3.636320148,1.774722215,0.919,43.87859726
4193599,0.318022504,-0.1497216,-0.028366089,85.71216321
4193602,0.442168007,0.527154858,0.794448853,62.31762771
4193608,0.358396238,0.541642489,0.741424561,30.74425283
4193612,0.511878931,0.143733672,-0.002944946,85.28975776
4193615,0,-9.262000084,-9.262000084,0
4193616,2.768549355,-0.951116351,-1.364694953,37.38710333
4193618,0.393521165,-0.113321327,-0.208648682,78.66265866
4193624,0.297645247,-0.104748789,0.00302124,82.89902638
4193628,1.766913015,-0.316870693,-0.608127236,81.21961764
4193629,0.054314812,0.038406372,0,0
4193635,0,-0.511734009,-0.511734009,0
4193639,0.002104259,-0.009315653,-0.009658813,1.234805429
4193642,0.176808043,-0.075562152,0.013366699,81.54551756
4193643,0.704067206,-4.542598645,-4.390965939,4.113982054
4193645,0,-2.068000078,-2.068000078,0
4193649,2.925875793,5.293000735,5.532999992,59.78406648
4193652,0.259645736,-0.115310361,-0.149230957,68.70662798
4193653,0,-2.373851061,-2.373851061,0
4193655,0.412932011,-0.492169613,-0.625274658,47.9734871
4193656,2.933109198,5.289196838,5.357401848,76.51274963
4193657,0.812855896,-0.001002265,-0.011329651,57.58261196
4193658,0.319895456,-0.252642793,-0.113006592,85.02636081
4193664,0.418969908,-0.075075929,-0.308700562,36.68767306
4193665,0.414303047,-0.474108677,-0.3800354,89.58260098
4193668,0.34517613,-0.062135639,-0.02507019,89.20141037
4193672,0,1.592192769,1.592192769,0
4193673,0.34728825,0.168302942,0.195098877,88.96843007
4193680,0.078890037,0.761255681,0.766144514,14.4403721
4193681,0.187370441,-0.361432717,-0.244140625,82.32494044
4193687,0,-2.144999981,-2.144999981,0
4193690,0.753703972,-0.197454585,-0.446792603,88.79452615
4193692,2.704105725,2.293957488,3.931279182,76.23072884
4193699,0.391882305,0.294199811,0.003921509,36.87969586
4193700,0.196352803,0.167867534,0.190643311,65.19164342
4193701,0.735946047,-0.135926853,-0.263092041,80.07070186
4193702,0.005604968,0.008142832,0.007766724,27.27197102
4193704,0.412928096,-0.09239914,-0.001358032,89.75790592
4193709,0.328534301,-0.143602811,-0.238380432,31.09054358
4193713,3.259002172,-5.047533577,-5.433640957,84.97838864
4193715,0.058368866,-0.020861646,0.009384155,15.10912307
4193716,0.351122727,-0.315468974,-0.19770813,76.18586777
4193719,0.204015741,0.014094147,0.027633667,89.75041753
4193726,0.338070267,-0.037067034,-0.027206421,89.04899803
4193730,0.292110382,0.13468671,0.086151123,87.56120223
4193731,0,-4.036605835,-4.036605835,0
4193742,0.29080331,0.048905212,0.030311584,87.52970508
4193744,0.469225945,-0.033046586,-0.031578064,89.81718331
4193746,0.370696441,-0.31160639,-0.266662598,86.53916322
4193747,0.689414842,-0.348766495,-0.766860962,87.44766069
4193748,0.305092149,0.171648164,0.370925903,84.95150733
4193754,0.818783494,0.437166655,0.277500006,6.669519137
4193760,0.515383446,0.270886953,0.095245361,87.66368119
4193762,0.50655067,-0.097250375,-0.12537384,89.18990033
4193766,0.258109521,0.120162843,0.059783936,89.30377385
4193768,0.341531221,-0.133807506,0.004302979,84.92628096
4193769,0,-2.096123695,-2.096123695,0
4193770,0.303063195,0.02684186,-0.098602295,61.86690105
4193772,0.411835408,0.12552728,0.079147339,80.88320243
4193780,0.07514007,-0.014632376,0.007965088,4.913353479
4193782,0.390614152,-0.776785278,-0.964324951,0.044881936
4193786,0.562693546,-0.414932251,-0.692718506,78.90733896
4193788,0.449449238,-0.181446262,0.013839722,53.69317188
4193792,0.171340293,0.147996618,0.137634277,86.57869148
4193822,3.285147236,-4.22878946,-4.119999886,46.5510687
4193832,4.062086998,-1.676509812,-0.919373453,49.40059061
4193833,0.263319157,0.207219342,0.18196106,89.09698234
4193838,0.376387891,0.179797904,0.033615112,88.55664272
4193839,0.025479312,-0.002154861,-0.004882813,13.88491923
4193840,2.147947486,-0.915031719,-0.441730201,57.66806481
4193843,0.3392021,0.10452704,0.009017944,66.25504027
4193845,0.072534111,0.820551788,0.816604614,4.19742084
4193846,0,-0.029205322,-0.029205322,0
4193850,0.028407529,0.087305406,0.099334717,3.833545547
4193859,0.244862829,0.107298095,0.102676392,86.88473811
4193861,0.027999116,0.227583091,0.226547241,7.231708903
4193866,3.618501394,5.449434772,7.7284832,86.36906025
4193867,0.217862064,-0.941373224,-0.964599609,17.56448343
4193868,0.424779723,-0.673276566,-0.96635437,89.29359194
4193870,0.549235894,-0.288929234,-0.0262146,73.87003481
4193872,0.247818999,0.070616169,0.023803711,85.25893116
4193875,0.436235225,-0.369710106,-0.589401245,68.4685298
4193878,0.035989348,0.471054835,0.469055176,5.59135094
4193879,3.083784898,1.86389417,0.469263524,44.08629996
4193883,0.250999705,0.113361246,0.071075439,88.42185215
4193884,0.479357148,-0.52643135,-0.708450317,43.93286842
4193888,1.349004457,0.899497054,1.426944256,35.15205146
4193890,0.372591481,-0.15653023,-0.042495728,88.18080331
4193891,0.208503817,0.169384003,0.061172485,33.06732212
4193896,0.242233364,-0.016901308,0.000411987,67.01430422
4193902,2.3522239,3.892235738,4.952557564,42.78037611
4193905,0.209019793,-0.045183077,-0.018966675,78.36815127
4193909,0.362970942,-0.129624785,-0.109863281,85.92459791
4193912,0.344994284,0.097910035,0.109802246,89.51301126
4193913,0.060892948,0.063012754,0.081863403,35.40667452
4193926,0.260677667,-0.067667007,-0.067817688,19.34038669
4193927,0.263233798,0.029099919,-0.025650024,89.53710217
4193928,0.037895405,-0.010471051,-0.012245178,5.599093892
4193929,0.615713429,1.652170176,1.540668845,23.77662649
4193930,0.124908447,0.109603882,0.109603882,22.33460544
4193939,0.473519268,-0.563726726,-0.864273071,44.31363168
4193942,0.242054,-0.203861237,-0.104621887,57.8355797
4193959,0.52025538,0.21020948,0.268203735,85.44770749
4193960,0.197566133,0.107193969,0.141601563,53.57189015
4193961,0.024012383,-0.02866626,-0.027450562,3.327542502
4193966,0.404325309,0.006235078,0.041519165,66.38752293
4193967,0,-1.072000027,-1.072000027,0
4193969,0.148124289,0.105044397,0.101119995,88.11707416
4193970,1.268362955,0.040707873,0.938000023,9.299332107
4193975,0.390318486,0.239713538,0.098106384,84.40181966
4193989,0.11276208,-0.031346694,-0.046035767,58.92717296
4193997,0.176103572,-0.02728888,-0.005233765,89.98219942
4194000,0.152658328,0.165892861,0.269630432,21.2821262
4194001,0.334523417,0.175572713,0.078674316,82.85922735
4194014,0.019399361,0.072644471,0.069076538,5.459020578
4194015,0.406526906,-0.833321796,-0.959907532,74.28714932
4194017,0.326261415,-0.301416687,-0.300582886,45.47314374
4194023,0.32503073,0.06793538,0.002380371,78.96534581
4194033,0.365047157,0.342103193,0.276390076,77.37355505
4194034,0.34851466,0.245131728,0.146820068,40.29896281
4194035,0.17781745,0.053858687,0.078567505,59.96744328
4194037,0.369907033,0.354777722,0.321105957,39.76710631
4194041,0.410220451,0.364856106,0.299697876,64.26077711
4194045,0.343005564,0.670691128,0.675445557,21.595469
4194048,0.392882016,0.374628739,0.282775879,71.52136341
4194053,0.220475474,0.086888356,0.011817932,76.90386911
4194055,2.079524275,-0.954016169,-1.59029305,1.989295227
4194057,0.370843741,0.298170945,0.402526855,3.475938732
4194058,3.274473678,0.930674938,-0.516845703,47.52871575
4194067,0.151794232,-0.017713422,0.053207397,88.01661463
4194068,0,-0.490509033,-0.490509033,0
4194071,0.17660884,0.033976603,-0.003959656,51.40993866
4194073,0.20387228,-0.142165156,-0.145980835,89.58451858
4194078,0.194700395,-0.001618688,-0.018585205,82.74339852
4194081,2.232781189,-0.502603591,-0.213090457,72.81139555
4194082,0,-0.129013062,-0.129013062,0
4194085,0.3542771,0.407281153,0.50138092,89.19186378
4194086,0,-0.028060913,-0.028060913,0
4194088,0.29842827,-0.312743853,-0.125823975,54.43433644
4194089,0.228951861,0.00501092,0.008560181,67.65402593
4194091,0.332827188,0.059471338,0.008453369,53.93623223
4194092,1.239574332,-9.211747943,-9.255386353,14.5154932
4194096,0.334843333,-0.135214267,-0.299163818,89.57811916
4194101,0,-1.684999943,-1.684999943,0
4194104,0,-0.88053894,-0.88053894,0
4194107,0.388407874,0.165775568,0.257125854,65.97633438
4194108,0.280525877,-0.072627934,-0.10005188,89.63776151
4194110,0.382177799,-0.201554856,-0.008300781,66.32718199
4194111,3.917550713,5.601833447,6.889315367,30.23243992
4194114,0.272897658,0.340515277,0.317466736,77.85692207
4194116,0.233550238,0.065856934,-0.003067017,77.07304363
4194124,0.37558231,-0.006508923,0.142990112,84.8467288
4194126,0.269192327,0.011266355,0.030220032,80.39819485
4194127,0.050597407,-0.08425465,-0.076591492,35.67671636
4194131,0.578420586,-0.013970992,0.087677002,86.37808975
4194142,0.46852844,-0.199960212,-0.208282471,87.36330509
4194144,0.254055062,-0.110547108,-0.137817383,88.99649919
4194147,0,3.069460392,3.069460392,0
4194148,0,0.124481201,0.124481201,0
4194149,0.433482578,0.60725028,0.832595825,72.61332716
4194151,0.265202595,0.144337902,0.151809692,80.62762254
4194154,0.358584657,-0.088831584,-0.017532349,86.8764368
4194158,0.391485085,-0.107525347,-0.03553772,88.64452142
4194167,4.129586105,-2.88873691,-4.276175022,12.64296548
4194175,6.477011984,0.208093197,-0.739593506,61.42433863
4194176,7.46460542,-2.316313441,-2.654571533,80.1042278
4194178,0,-1.015141487,-1.015141487,0
4194180,0.194526473,-0.235901439,-0.253631592,16.61272336
4194183,0.719251885,1.53995575,1.651046753,8.942639671
4194185,0.412756479,-0.502188617,-0.596862793,73.92383082
4194186,0.316716903,-0.099836946,-0.016296387,87.71615937
4194189,0.298774203,-0.111039194,-0.056427002,89.73489202
4194191,0.489691708,1.67984614,1.503000021,6.782881111
4194197,0.018554522,0.463401242,0.463996887,6.648889238
4194206,3.114328965,0.664279235,0.828393787,88.96248623
4194213,0,-5.722316742,-5.722316742,0
4194227,0.510921253,0.330622562,0.091590881,89.12716501
4194229,0.246896322,-0.008551205,-0.069152832,79.22664162
4194231,0.574895513,0.020312732,-0.159095764,70.45013491
4194234,0.432299963,-0.275475072,-0.323217243,7.869318275
4194236,0.296417636,0.080300521,0.085144043,89.94859062
4194237,0.083826758,0.013864854,0.060722351,8.980694606
4194244,0.288065318,0.523671662,0.61026001,70.46217448
4194248,0.823079059,-0.257222509,-0.110855103,89.24876304
4194250,0,-0.130554199,-0.130554199,0
4194256,0.184296713,-0.429743527,-0.419578552,84.11604562
4194257,4.436857929,4.924453228,7.370774984,63.41578311
4194262,0.41989488,-0.023888113,0.18031311,56.68799411
4194264,0.307614914,-0.09345355,0.041297913,88.60013854
4194269,0.204205472,-0.118484156,-0.110458374,89.84014928
4194272,0.585513232,-0.299478794,-0.220993042,89.931137
4194275,0,-0.401992798,-0.401992798,0
4194276,0.373451931,0.107044444,0.107841492,48.95022748
4194278,1.110330801,-0.025301693,-0.134075299,10.37657705
4194279,0.005241286,-0.039727273,-0.037999999,0.091952156
4194283,1.452963119,0.229986509,0.777694702,47.75233226
4194284,4.247775595,1.848601963,0.842758179,84.16892513
4194285,0.20603658,0.091741822,0.065315247,51.64008877
4194286,0.251070382,-0.313885029,-0.243980408,85.09687944
4194297,0.423155483,0.042553631,0.089263916,85.86171631
4194302,0.012940742,0.03137266,0.027282715,7.064790054
4194309,0.341199519,0.475839984,0.519813538,70.40586916
4194311,0.068016717,-0.017646286,-0.020095825,50.83601546
4194312,0.139928837,-0.843566226,-0.815628052,37.13274422
4194314,1.395297611,8.37565624,8.105569839,14.54366955
4194317,0.256966143,0.138063044,0.082733154,88.77314973
4194321,0.333810401,-0.056311723,-0.010528564,78.06236331
4194337,0.231713025,0.785587662,0.796951294,55.97944198
4194359,0.067135279,-0.0909729,-0.096557617,6.013061515
4194363,3.066416672,1.484988506,0.805563033,74.54731797
4194364,3.077905223,-1.942091861,-2.354095459,66.86202051
4194366,0.200864534,-0.082688692,0.025756836,70.76310065
4194369,0.429624357,0.407438195,0.331161499,60.04105706
4194372,1.728651819,6.833593249,7.369949341,14.70893721
4194373,0.533844681,-0.03150177,-0.004257202,84.03753031
4194375,0.278952894,0.061946785,0.00718689,89.32031255
4194376,3.805078755,-0.756631707,-0.616506934,52.67404006
4194378,2.796206741,-1.428296158,-0.746566772,87.21217817
4194379,0.012223426,0.017135675,0.017494202,19.12809081
4194383,2.992391962,2.301813673,2.940079689,70.27877054
4194385,0.125194031,-0.229834123,-0.19997406,6.105294703
4194389,0.227096946,-0.012321835,0.012741089,89.92431019
4194390,0.360593546,-0.083161994,-0.127799988,79.65932347
4194391,0.468228993,0.275746464,0.097747803,86.19271444
4194395,0.651678356,-0.102879646,-0.425949097,87.04327943
4194396,0.134474935,3.72E-05,0.013679504,89.73144968
4194399,0.221123435,0.092060762,-0.069633484,8.211051985
4194405,0.306101057,0.020439337,0.019493103,89.74125335
4194408,0.371257406,0.011428924,0.010879517,88.03348738
4194410,0.353030448,0.285683362,0.202606201,86.88001814
4194412,0.379000787,-0.173672611,-0.137466431,88.16252326
4194422,0.241173324,0.307133259,0.32094574,79.64524321
4194425,0.248148478,0.14284366,-0.076019287,47.99283399
4194427,0,0.305999994,0.305999994,0
4194429,0.954472769,-0.416764704,-0.152999997,41.51525674
4194431,0.279505483,-0.064878787,-0.152999997,5.524457902
4194432,0,-5.581268311,-5.581268311,0
4194438,0.253225705,-0.105934143,-0.171707153,43.47562448
4194442,0,0.027435303,0.027435303,0
4194443,0.194630234,-0.100604638,-0.078048706,82.39283421
4194450,0.163922952,0.010033286,-0.005722046,82.37745972
4194452,0,-2.111685991,-2.111685991,0
4194459,0.125609411,-1.003912354,-0.992752075,0.846079119
4194463,0.245878048,0.181125973,0.230079651,87.91882981
4194466,0.232372597,0.066321227,0.207061768,79.10197909
4194486,0.45931632,0.624962007,0.981201172,43.46142134
4194489,2.821392208,0.44521073,0.165204957,65.13253152
4194495,0.483281124,-0.521935966,-0.660799652,10.27020251
4194497,0.374790333,-0.038831771,-0.275794983,19.73550804
4194499,0.341077537,0.116408194,0.05506897,89.37588703
4194502,0.264348806,-0.104110616,-0.003097534,70.57439309
4194505,0.380934406,-0.062414038,-0.040328979,87.55799563
4194507,0.162575472,-0.127892143,-0.144996643,49.23436193
4194511,0.359353563,0.037504826,0.031158447,77.6122688
4194513,0.272884107,-0.653608686,-0.629364014,20.79387052
4194515,0.527361105,0.086211151,-0.004150391,51.00465585
4194519,0.035724945,0.042155533,0.0284729,5.284610599
4194525,5.271999117,-2.635223169,-4.798400879,80.85981849
4194528,0,1.531219482,1.531219482,0
4194529,0.003260518,0.399097443,0.398910522,2.277992104
4194530,3.256557978,-1.126750929,-0.057460841,46.31103534
4194534,0.363858477,0.197487662,0.006576538,45.07717144
4194537,0.154302067,0.448922579,0.453475952,81.77810921
4194539,0,0.347169846,0.347169846,0
4194540,1.572612675,0.724404362,0.579594731,86.12440762
4194542,0.436468836,-0.237005576,-0.00617218,89.54495794
4194543,0.314940685,0.095931785,0.091659546,88.11487275
4194545,0.372609877,0.257613182,0.230712891,83.24571043
4194549,0.383812701,0.706987516,0.837173462,50.14086606
4194556,0.397008284,-0.240843865,-0.133285522,86.80702353
4194559,0.21563601,-0.112256942,0.010116577,46.46453121
4194560,0.129779641,-0.017206425,0.011413574,34.45481252
4194561,0.205262154,-0.082962284,0.010124207,68.75381221
4194562,0.222032755,-0.086399602,0.010131836,51.65826187
4194565,0.209400791,-0.086978776,0.010147095,55.38729637
4194571,0.233560174,-0.095250296,0.010108948,84.30480766
4194572,0.168068668,-0.089127585,0.010566711,31.84014342
4194576,0.1129775,0.129808573,0.134223938,69.05413537
4194584,0.429238349,-0.208662961,0.041275024,89.33192395
4194596,0.264851499,0.312592472,0.352714539,86.03804397
4194629,0.137083706,0.115613769,0.105789185,75.18078694
4194633,0.048320639,-0.067194621,-0.064163208,6.228128211
4194639,0.459453916,-0.326588859,-0.147094727,42.77606972
4194641,0,0.245803833,0.245803833,0
4194642,0.210694962,-0.113245288,-0.021812439,86.51091559
4194644,0.200641095,-0.024082806,0.005317688,87.48000838
4194645,0.485496868,0.249497819,0.472396851,74.72104858
4194648,0.896734876,-1.470600009,-1.072000027,7.185340548
4194653,0.510604675,0.560591422,0.710876465,89.26861003
4194655,0.317380471,-0.162797115,-0.015777588,89.84800035
4194660,0,-0.045489833,-0.045489833,0
4194661,0.252695798,0.106256424,0.073318481,85.3107236
4194671,2.393122691,-1.132573693,-1.674057007,2.635648799
4194679,0.198992223,-0.180253347,-0.205436707,83.4568398
4194683,0,0,0,0
4194687,0.510289415,0.478235658,0.577255249,89.16461286
4194688,0.330747466,-0.270563551,0.022277832,66.5893383
4194691,0.346151421,0.095503305,0.042701721,89.76610447
4194697,0.017044574,0.00402968,0.005111694,17.15657911
4194701,0.465691016,0.044229677,0.300308228,75.46146577
4194703,0.299798147,-0.453146397,-0.406387329,24.7231794
4194709,0.284288533,0.867704391,0.964851379,46.27493831
4194711,0.391360714,-0.851747414,-0.958396912,50.8103242
4194714,0.342246788,-0.282066887,-0.33399114,15.27476017
4194722,0.456103276,0.1948435,0.366409302,47.94618139
4194729,0.069506113,-0.029261662,-0.054031372,36.72480076
4194730,0.321122496,0.534673609,0.64932251,61.92440372
4194745,0.438651464,-0.670268863,-0.899993896,37.01094795
4194754,1.981055864,8.219202087,9.18894577,63.16801392
4194755,0.329051091,-0.148335964,-0.066162109,89.60540644
4194756,0,0,0,0
4194759,0.240636674,0.419929089,0.441818237,68.78963588
4194765,2.973850868,3.99287686,5.415849686,79.2487405
4194766,1.105284046,-8.478036217,-8.692414761,5.862036609
4194767,0.391829458,-0.199359294,0.012481689,42.32779438
4194771,0.075783271,0.236461639,0.278877258,6.210221786
4194777,0.28818139,-0.085083405,-0.097434998,89.64203652
4194783,4.855707823,0.734746933,3.096389771,39.10478004
4194785,0.253167288,-0.087859489,-0.173942566,79.87201224
4194786,0.219891341,-0.063416871,-0.105621338,86.21495858
4194790,0,-1.405349731,-1.405349731,0
4194792,0.278529968,-0.354205037,-0.330399826,13.84789543
4194794,0.472600917,0.342670441,0.40120697,88.29330169
4194796,0.101446487,-0.010070995,-0.008453369,34.19260531
4194804,0.370027825,0.57456952,0.563552856,83.3407131
4194817,0.436861714,-0.564529477,-0.505493164,72.60799998
4194821,0.192261745,-0.01825314,0.031707764,87.16811269
4194826,0.441845518,0.31601999,-0.000823975,22.94575017
4194827,0,0.583328247,0.583328247,0
4194831,0.014740098,-0.905722664,-0.905433655,0.316454281
4194839,0.33395989,-0.048910066,-0.092987061,89.54697167
4194841,1.232904343,-0.29271273,-0.755370617,29.57512903
4194858,0.00986759,0.002997292,0.002830505,5.287306763
4194859,0.053992254,0.091456095,0.078102112,5.948099284
4194862,0.292168485,-0.028238228,-0.020263672,79.04162393
4194871,0.264777697,0.079464902,0.045257568,88.64083537
4194877,0.306126302,-0.255772858,-0.246833801,65.94143237
4194887,0.117275075,0.926310158,0.913032532,28.19374399
4194888,0.152096112,-0.913705135,-0.965789795,10.51761882
4194895,2.748779922,0.744312684,-0.112527482,78.78851873
4194896,0.147880738,0.025986294,0.01083374,86.76121109
4194904,0.379604381,0.249904923,0.192428589,74.21462564
4194909,0.166415884,0.350922687,0.483078003,17.14310387
4194911,0.018225381,0.049785678,0.058700562,28.90211375
4194917,0,-9.076695442,-9.076695442,0
4194919,0.056783575,-0.044344909,-0.057235718,14.12127942
4194926,0.538132967,0.428510051,0.681091309,74.30976081
4194927,0.442319078,-0.269031303,-0.064849854,34.61775285
4194928,0.188257949,0.713238542,0.681625366,34.06844072
4194930,0.071431955,0.294262356,0.288803101,6.587507489
4194932,0,0.939971924,0.939971924,0
4194947,0.474469766,-0.662323243,-0.634463429,5.692523782
4194955,0.025184948,-0.014660544,-0.015792847,5.631735049
4194958,0.280257641,0.008544922,0.003265381,84.8703773
4194963,0.24943839,-0.052323214,-0.041809082,88.31027899
4194974,0.095495011,0.639394957,0.644790649,41.70590485
4194979,0.016470121,-0.017668098,-0.016113281,12.26791939
4194980,0.51017636,-0.400042061,-0.550201416,86.09495375
4194981,0.038238481,-0.006169637,0.005371094,4.301222975
4194982,0.067744969,-0.878896358,-0.890563965,21.64428784
4194983,0.477426971,-0.655840254,-0.906959534,72.67768584
4194987,0.440256297,0.050368291,0.250518799,89.8650615
4194992,0.307990185,-0.28488614,-0.1195755,39.96086362
4194998,1.634922997,5.371507645,5.312895775,46.60855037
4194999,0.292795778,0.125281956,0.005279541,65.82607608
4195003,0.358343399,-0.115275435,-0.15574646,81.50779021
4195011,0.051443416,-0.01673762,-0.003303528,16.41344692
4195020,0.050716752,0.020170792,0.030151367,9.091081019
4195025,0.263364323,-0.181860807,-0.299224854,47.28726685
4195029,0.142871344,-0.23373648,-0.265830994,58.47631305
4195031,0.356668178,0.065291963,0.010391235,60.17413118
4195032,0.380291515,0.256776364,0.242492676,87.79989487
4195034,0,10.52842712,10.52842712,0
4195039,0.465843503,-0.130719755,0.004577637,89.9316766
4195041,0.248372583,-0.24153335,-0.229377747,84.98319792
4195045,0.389298419,0.293105357,-0.005065918,79.33829763
4195047,0,-0.100631714,-0.100631714,0
4195052,0.033484688,-0.027228748,-0.032394409,20.84804961
4195058,2.345624868,0.260240755,0.290483952,86.99652902
4195063,0.311865406,-0.820802322,-0.926849365,64.49088818
4195073,0.373710932,-0.020532927,-0.026931763,85.90929774
4195076,0.234880624,-0.004454157,0.007705688,89.803272
4195082,0.328601777,0.130211604,0.0572052,89.05265755
4195083,0.279625569,0.06493582,-0.029708862,31.2471242
4195085,0.212569892,0.05356216,-9.16E-05,88.12947099
4195087,0.431736066,0.261966495,0.200073242,89.89937067
4195103,0.187243349,-0.078447553,-0.047653198,84.8817202
4195105,0.101086174,0.214538574,0.185882568,5.572553122
4195108,0.439336628,0.13304361,0.064331055,89.27714621
4195114,0.512209379,0.140591282,0.079406738,82.51350959
4195116,1.47166745,0.996545156,0.710670471,40.59213124
4195123,0.153599609,-0.891133432,-0.931777954,6.919747435
4195143,0.498772392,-0.347593822,-0.428794861,54.91944775
4195145,1.013373442,0.12845412,0.244208574,28.57258569
4195146,0.239495687,0.047109978,0.00958252,85.09975737
4195160,0.436832242,-0.424458,-0.117126465,77.45130081
4195161,0.441547451,-0.141980499,0.099362407,10.0906416
4195163,0.453652131,-0.027294712,-0.160736084,57.68304952
4195165,4.973073576,1.197519907,-0.081359863,65.26331742
4195175,0.382612086,0.026974015,0.070297241,88.74275128
4195183,0.202385629,0.026092706,-0.026077271,43.40222158
4195185,0.854597513,0.234309477,-0.002578735,14.29297702
4195186,0,0.045578003,0.045578003,0
4195187,0.072819065,0.843380243,0.84803009,0.072156449
4195189,0.172879645,0.054784259,0.02947998,81.14142069
4195191,0.456091016,-0.095203501,-0.031021118,67.0434148
4195195,0.04073052,-0.324545251,-0.319946289,15.03961076
4195208,0.219665872,0.117759542,0.103752136,88.28214411
4195210,0.414695511,0.153805259,0.244812012,72.37365715
4195211,1.668204671,0.1007488,0.039228965,54.02188849
4195212,0.224144806,0.133384353,0.125244141,59.9897957
4195222,0.466870368,0.600163449,0.798202515,82.83532715
4195229,0.313824069,0.176855604,0.172782898,89.55470475
4195236,7.339156124,-1.762335916,-3.445361435,68.1065546
4195237,0.061266633,0.113073131,0.126205444,17.98138139
4195242,0.22212746,0.147798442,0.197479248,86.19239073
4195247,0.079934406,-0.050632222,-0.021324158,9.841889721
4195250,0.175170794,0.649673178,0.721984863,40.70365038
4195263,0.251785608,0.018351692,0.002700806,89.2513623
4195266,0,2.123656988,2.123656988,0
4195269,0.332627521,-0.116126101,-0.154953003,35.58836895
4195271,0.259495864,-0.376379384,-0.350250244,87.24974035
4195272,0.031437285,-0.051753998,-0.060523987,7.518438977
4195277,3.595629962,2.63299174,1.771763325,81.92504137
4195282,0.393789514,-0.152840978,-0.019569397,41.40783933
4195286,3.828941484,0.951154697,-0.272781372,50.97517185
4195288,4.468754426,7.410074662,9.021351814,52.91073477
4195295,2.722958237,0.66010385,0.320632935,80.70875814
4195296,0.025440405,0.024038792,0.023139954,30.22962679
4195299,0.017295366,0.777631562,0.776626587,1.174633341
4195300,0.8489057,1.196592348,1.460463047,65.59639217
4195301,0.589967712,-3.796478376,-3.8642416,8.052158593
4195304,0.167732945,-0.259835002,-0.300971985,89.48852477
4195316,1.466778482,-2.681852857,-3.357817411,24.75213617
4195317,2.245481165,0.084871119,0.159072876,68.34488195
4195318,0.319522495,0.35077949,0.371658325,89.00692899
4195320,0.292173066,-0.20232433,-0.042205811,73.14416352
4195327,0.271488955,0.000857206,0.043228149,88.60525379
4195329,0.186920577,-0.852708795,-0.900291443,24.21112933
4195334,0,0,0,0
4195345,0.081580886,0.160407172,0.162704468,4.177137701
4195347,0.38213754,0.49607477,0.736755371,50.52149945
4195354,2.340948607,0.70400019,0.391448975,78.84877491
4195356,3.842466329,7.413638122,7.603984833,24.12015066
4195357,0,0.352249146,0.352249146,0
4195363,2.876169532,2.631756357,0.971964002,62.59711355
4195369,0,0.124984741,0.124984741,0
4195381,0.497023564,-0.013640475,-0.208114624,82.36923521
4195382,0.166906996,-0.967131861,-0.958457947,7.803128477
4195388,0,-0.697433472,-0.697433472,0
4195390,0,-0.353881836,-0.353881836,0
