IncomingTrackId,std_accX_end,mean_accX_end,median_accX_end,max_angleX_diff
2101803,3.54693228,8.273987036,9.526819229,18.12213876
2101871,0.21822642,0.081950165,0.010253906,82.62143262
2103359,3.112314058,4.393298679,6.315093994,1.284860757
2103361,0,6.700332642,6.700332642,0
2103380,0.171226599,8.204620361,8.145599365,0
2103611,0,-1.015731812,-1.015731812,0
2103662,1.687834156,-0.109276319,-0.541687012,43.22838254
2103716,1.08042771,7.031209997,7.304122925,59.72768535
2103890,0,-0.537261963,-0.537261963,0
2104156,0,0.634482801,0.634482801,0
2104268,1.326624344,-0.607946274,-1.047495246,30.52430859
2104517,0.211120396,-0.03717325,-0.0548172,88.92401012
2104637,0.457486978,0.087768322,0.032623291,84.254373
2104726,0.219057574,0.042580414,0.021629333,89.71593022
2105065,1.647056178,0.770601078,0.559150696,86.80822135
2105069,0.536221463,-6.844883845,-6.644439697,1.995363977
2105215,0.260642675,-0.020981252,-0.104614258,88.44995711
2105658,0.268567347,0.090987562,0.104980469,89.83228355
2105779,2.756383398,0.632330135,1.469619751,84.86213425
2106421,4.171981186,4.358955629,5.554168701,48.04205242
2106560,0.094768241,0.078324,0.024017334,23.77415361
2106808,0,10.11299992,10.11299992,0
2106994,4.915792209,3.47455554,5.132999897,75.76258363
2107429,0.432827046,-0.925208331,-0.68900001,10.89850656
2107463,1.592875382,-1.583784622,-1.684999943,76.27649178
2107590,0,8.178842545,8.178842545,0
2109211,0.500278974,-2.941343035,-2.732147217,4.685992118
2110073,0,2.662433624,2.662433624,0
2110376,0.40902694,-0.104647055,0.016685486,82.93545265
2110556,0.121041531,-0.014886039,0.059844971,16.29288609
2111111,0.143849798,-0.918006407,-0.924255371,7.877010026
2111141,0.07741299,-0.634375544,-0.642272949,0.076947063
2111157,0.21055912,0.032985526,0.057540894,83.94056286
2111333,0.817126251,0.063019602,-0.157501221,24.19592669
2111462,1.433068077,-1.305767452,-1.378999949,85.8345224
2111577,0.358517782,-0.713925644,-0.959915161,42.41958885
2111823,3.283105736,-2.104276607,-1.684999943,89.76911105
2112040,0.610392191,-0.026584387,0.017242432,75.64320772
2112129,1.548095527,-0.449148515,0.075999998,87.33018249
2112132,0,-0.305999994,-0.305999994,0
2112275,0,-1.061981201,-1.061981201,0
2112847,0.185362167,-0.002154382,0.002700806,89.6313503
2112878,0.186548929,-0.005015103,0.014511108,89.66476176
2112999,0.211087191,-0.170641282,-0.154426008,42.15791963
2113127,0.301033236,-0.07419154,-0.129722595,81.8925436
2114171,0.318500469,-0.006174402,0.03692627,84.63787581
2114319,0.257991532,0.17755002,0.17199707,87.91098121
2114725,0,-3.763799906,-3.763799906,0
2114726,0.446020483,0.265818918,0.322029963,9.097853086
2115023,0.424909426,0.28648419,0.311255723,58.2471073
2115056,0.332211371,0.145295363,0.150344849,89.89805488
2115156,1.251205291,1.209969716,0.525527269,28.75692243
2115164,0.12962666,0.016324997,-0.046737671,24.27203561
2115703,0.402977092,0.129568071,0.176269531,87.59319488
2116604,0.25952621,-0.081905675,0.009658813,88.26238539
2116933,0.389855738,-0.197766968,-0.316352844,79.96382644
2117020,0.046176398,-0.172686313,-0.176856995,18.88425318
2117034,0.198192468,0.00965868,-0.00213623,89.09176406
2117173,0.028297424,0.775169373,0.775169373,0.215183935
2117634,0.125002431,0.167995378,0.168121338,52.15975343
2117831,0.363782869,0.321298838,0.054718018,70.89205776
2118463,0.498167055,0.217925543,0.094673157,67.05188907
2118905,0.199721991,0.055284761,0.010299683,82.51567107
2119799,0.379170463,-0.096641874,0.044265747,89.23528222
2119990,0.276171037,0.200619639,0.032608032,55.2178814
2120018,0.291687826,-0.063758764,-0.002304077,89.18639454
2121082,0,0.236953735,0.236953735,0
2121959,0,0.689530075,0.689530075,0
2122651,0,0.926193237,0.926193237,0
2122691,0.161981699,-0.824755841,-0.819763184,17.64826146
2122755,0.251283378,-0.001377639,0.003341675,82.53502239
2122819,0.920637921,-0.619657208,-0.411204129,63.59340441
2123142,0.466633885,0.481354452,0.70602417,87.09395188
2123169,0.208357564,0.125688868,0.114257813,86.42222984
2123203,0.394382896,0.357467093,0.251403809,84.51821007
2123586,3.119981073,0.265897507,0.076616794,32.98842769
2123983,0,-1.302000046,-1.302000046,0
2124164,0.148723861,0.072888543,0.071334839,89.40095204
2124233,2.095345513,1.049552634,0.421000004,39.81031663
2124495,0.471631829,0.173449555,0.106628418,89.865126
2124522,0,0.173999995,0.173999995,0
2124955,0.229364636,-0.081985023,-0.115905762,77.45376122
2125025,2.539850915,0.879061337,0.708328247,32.65045591
2125084,0,-0.00478855,-0.00478855,0
2125086,0,-2.181184292,-2.181184292,0
2125274,0.215020003,0.183630841,0.160064697,86.30794343
2125420,6.937392899,1.978518971,0.453715071,83.67613902
2125865,0.411589558,-0.710475219,-0.848495483,87.28338996
2126405,1.140146634,-0.110527039,-0.109527588,16.03555949
2126479,1.967031649,-0.767037964,-0.983413696,43.30430212
2126543,0.189800359,0.000866535,0.014144897,81.74514481
2127194,5.056674409,2.949746565,-0.379492551,85.51817516
2127277,0,8.363202095,8.363202095,0
2127881,0.684895449,-0.049888798,0.087799072,87.99778319
2127966,0.441288457,0.456978189,0.371536255,88.39248408
2128311,0.443893961,-0.683728886,-0.829391479,81.51365187
2128373,0.257495049,-0.589908499,-0.612792969,54.97844641
2130094,0.219327682,0.050641217,0.109649658,88.72079931
2130095,0,-0.699707031,-0.699707031,0
2130156,1.378481638,0.540135948,0.659011841,36.81415432
2130170,1.530820792,-2.61892285,-3.297409058,35.83677235
2130210,1.511788361,-0.616452747,-1.237205505,24.99159614
2130276,0.471783272,0.267467443,0.513397217,72.28384661
2130333,1.376861223,0.408325852,0.212493896,24.08532602
2130456,0,2.508529663,2.508529663,0
2130946,4.174081539,-0.191195569,-0.654205322,67.3091682
2131035,0,-3.867233276,-3.867233276,0
2131150,0.18546673,0.000229018,0.015792847,89.51529312
2132087,0,0.105344877,0.105344877,0
2132286,0.20793833,0.095759983,0.053405762,88.44573081
2132409,1.546235223,-1.383089856,-0.833473206,36.22950361
2133716,0.508509836,1.408846539,1.424593508,7.548725976
2133863,0.152869074,0.018651201,-0.08416748,86.07992073
2134297,2.207665654,-0.772735432,-0.042648315,84.07822442
2135382,3.168359234,0.524070684,0.013587952,84.51725352
2137662,0.341925545,-1.704269197,-1.684999943,7.713304449
2137718,0,-1.302000046,-1.302000046,0
2138171,0.142331269,0.005364181,-0.025970459,89.61443256
2138183,0.269071175,-0.004873996,0.070144653,73.45276849
2138485,0,7.491940498,7.491940498,0
2140651,1.040967718,-0.995701748,-1.378999949,46.51668246
2140773,0.325012045,0.356408485,0.421195984,88.72894066
2140777,0.252656805,0.064703733,-0.022888184,89.7326675
2141478,0.876651646,-0.555986833,-0.459686726,32.19928563
2141539,0.402638306,0.027330433,0.019622803,86.06573361
2141856,0.382384055,-1.276500007,-1.187000036,5.905241472
2141876,2.189291031,-0.58031581,-1.225000024,40.6636195
2141984,0.342668523,0.032462654,-0.020050049,89.42591154
2142015,3.732608742,5.255827604,5.707499981,71.49121481
2143217,1.540314822,-5.177416633,-5.209000111,5.976646998
2143417,0,-0.229000002,-0.229000002,0
2143540,0.016802013,-0.004586956,-0.018999999,45.27657485
2143670,1.147677725,-0.250201713,-0.079011068,70.91475165
2143690,0.545694467,-0.910964966,-1.296829224,0
2144362,4.125460832,-0.697969396,-0.611999989,60.55625277
2144372,5.005277825,3.051847069,4.609008789,74.58263948
2144438,0,-9.5,-9.5,0
2144571,0.189724165,0.05205677,0.017204285,85.08435121
2145423,0.211012762,0.092489404,0.093719482,84.92047349
2145552,0.286045242,-0.192841133,-0.219230652,87.67290917
2145583,0.364675387,0.118122045,-0.006118774,86.13093497
2145650,0.397651297,0.060573888,0.009429932,86.69450631
2145943,0.405082719,-0.544865552,-0.786872864,41.13818345
2145955,2.127569732,0.067520013,-1.531999946,29.76303649
2146119,0.254315095,0.123752301,0.014785767,3.059396675
2146245,0.895809714,-0.593882343,-1.43599999,10.23266527
2146331,0.229792141,0.106186733,0.114196777,89.69300538
2146418,0.392946101,0.44090904,0.44090271,81.14119809
2146980,0,0.008,0.008,0
2148171,0.25776466,-0.352946794,-0.516967773,82.20105913
2148319,0.07197871,-0.040150992,-0.006881714,49.14360158
2148552,0.465018297,-0.322551137,-0.10446167,89.17835452
2148803,0,7.947036743,7.947036743,0
2149278,0.068246611,-0.013472114,-0.004981995,79.89206567
2149341,0.244447507,-0.004657004,-0.00352478,89.83176421
2149613,0,-1.280937076,-1.280937076,0
2149668,0,-3.101999998,-3.101999998,0
2149723,0.429535698,-1.321104179,-1.302000046,19.69785997
2149776,0.274463687,0.097918563,0.021606445,82.89776609
2149815,0.702401484,-0.985937512,-0.842000008,10.77308427
2149816,3.616269053,0.08563262,0.378283858,89.63651953
2149818,0,-1.312022567,-1.312022567,0
2149821,0,0.038307227,0.038307227,0
2149849,0.030882388,0.081746419,0.081100464,0
2149864,1.877018599,-1.468650034,-1.225000024,32.59999889
2149981,0.130014547,-0.112101592,-0.098907471,69.17564933
2150000,2.03940615,-2.468079924,-3.289633036,61.42771865
2150343,3.394466366,-1.142766325,-0.986411095,88.86731018
2150367,0.350677509,0.073988715,0.058364868,88.48548836
2150410,3.952587967,3.203797774,2.401916504,48.24147286
2151487,0.259854872,0.601567967,0.73298645,22.75792358
2151524,0.224147195,0.104660483,0.103874207,87.78577234
2151605,0,-1.761999965,-1.761999965,0
2151751,2.219766689,0.566844441,1.225000024,64.28994271
2151842,0.241788414,0.232456908,0.419998169,31.06382786
2152017,0.196352746,0.157024015,0.081802368,68.0655854
2152025,0,-8.111803055,-8.111803055,0
2152252,2.524840757,-0.261044893,0.131652832,87.47131525
2152386,3.415811475,0.641461521,-0.765999973,44.27447473
2153553,3.394776363,2.535984358,2.501940727,84.39308094
2153828,0.496915378,-1.804775278,-1.761999965,11.00840334
2153918,2.170047048,0.588028134,0.082008362,76.11055188
2153983,0.265120849,-0.103984643,-0.092376709,86.77743384
2153986,0.157979741,-0.022820837,0.008743286,88.89322547
2154879,3.963724272,-3.71879375,-2.183511972,17.10317946
2154933,1.746538767,-0.907693191,-0.91900003,89.20874227
2154977,4.848468326,-3.236338727,-2.665461779,83.40086659
2155175,0.351697452,-2.252941202,-2.298000097,6.796692841
2155546,1.896627348,-0.275931151,0.324658215,85.41081074
2155651,0.046796575,-0.005831037,-0.006698608,11.64364264
2155680,0.561413348,-1.400187493,-1.378999949,35.12588684
2156077,0,-2.375,-2.375,0
2156193,0.278582591,-4.158728361,-4.170699358,0
2156674,0.221481148,-0.017284284,0.019073486,89.54295654
2157046,2.537407234,0.585413019,0.082931519,79.78449052
2157199,3.416617881,-0.675255585,-1.140510559,83.60962115
2157216,0.194197799,-0.009565318,-0.018386841,89.83235782
2157223,0.281168406,0.053212588,0.044235229,89.01346945
2157280,0.280018817,0.1281364,0.074356079,87.57264343
2157310,0.178259226,-0.120325669,-0.152206421,88.53501851
2157380,0.863061182,8.984543316,9.060531616,48.14659858
2157603,0,-2.604000092,-2.604000092,0
2157776,0.255622198,0.099625784,0.000946045,88.8791727
2157936,0,-1.914999962,-1.914999962,0
2158005,0.249367936,-0.054810982,-0.078735352,87.92085506
2158056,0,-2.220999956,-2.220999956,0
2158732,0.058656136,0.619060516,0.613418579,2.057627877
2158907,0.151511639,-0.976985386,-0.929794312,2.210312983
2159044,0.11357725,-0.013259888,-0.049789429,4.960522589
2159572,0.133733206,0.105631334,0.058441162,28.53099015
2159976,4.136478801,-0.935774142,-2.309278011,48.73894202
2160446,0.153732243,-0.006492103,-0.018692017,87.50553883
2160449,0.551855403,0.164475342,0.101913452,76.6567557
2160451,0.297424425,0.111524057,0.077880859,89.68060392
2160456,0.642147867,0.115476395,0.071563721,83.88551741
2160560,0,-1.881899953,-1.881899953,0
2160754,0.650909084,-1.554850012,-1.378999949,8.915362421
2161178,0.394872343,-0.57592926,-0.795768738,87.62912472
2162125,0.09199653,-0.308645884,-0.254844666,13.43877648
2162213,0,-1.56803894,-1.56803894,0
2162264,0.208533228,-0.616224501,-0.686737061,24.9897438
2162365,0.181834463,0.031113513,0.007034302,82.18524662
2162579,1.999048639,-2.619670706,-2.961717844,58.79174791
2162671,4.367931802,0.496328075,0.319635689,77.16274284
2162777,0.329449854,-0.5702224,-0.585647583,13.18822319
2162865,4.600142653,-5.503126658,-6.930228472,88.67058548
2163683,0.211508269,-0.012418875,0.015106201,89.73690859
2163710,0.185559497,-0.02947972,-0.005012512,89.84864882
2164201,0.233673851,-0.203986853,-0.225738525,89.88864469
2164426,0,-0.804476321,-0.804476321,0
2164622,0.245441625,0.055358853,0.047424316,89.34680641
2164891,0.220356797,0.067549683,0.07509613,88.88919385
2164892,0.224883606,0.028460262,-0.062438965,86.83033946
2165775,0.022634587,-0.752966309,-0.746200562,0.96054438
2165819,0.219460512,0.036338347,0.026992798,89.81802335
2166115,0.248973699,0.14342917,0.103988647,51.71083684
2166285,3.406899159,1.592690604,1.680961609,82.59834298
2166512,0.115907414,0.021236875,0.063842773,74.04116168
2166682,0.022172578,-0.222117106,-0.223022461,5.204515679
2168013,0.388921034,0.159696716,0.089767456,67.83774205
2168243,2.258586923,2.374398522,3.213116884,48.8940721
2168524,0.150588979,0.06406689,0.031356812,84.96906808
2169544,0.334226896,0.034044069,0.017776489,88.50530349
2169863,0.193855684,-0.306544978,-0.229598999,24.08779622
2170607,0.200249068,0.017012363,-0.010559082,85.71502145
2170967,0.179103193,-0.015087128,-0.017463684,89.81895261
2171207,0.715400024,2.959233335,2.825158119,6.828980806
2171475,0.232329406,0.180410966,0.139434814,88.81123004
2171827,0.224013622,0.010432738,-0.032470703,88.56451051
2171972,0.34355104,2.940753434,2.959323645,9.236374654
2172021,0.263141364,-0.24653632,-0.226394653,89.861701
2172079,0.338095686,-0.436419469,-0.512527466,88.36952739
2172226,0.356937554,-0.680226424,-0.831039429,69.26193826
2172363,0.22111217,0.127898639,0.133743286,88.46681957
2172364,0.147736655,0.118913763,0.137832642,85.67858021
2172529,0.28583802,0.013829755,0.011779785,89.91158502
2173266,0.23656269,-0.442290682,-0.473937988,77.67266523
2173968,0.243233987,-0.007944203,0.025230408,83.55552674
2174397,2.144494662,-1.443888738,-1.514694214,18.40781506
2174758,0.233818062,0.065147649,-0.000259399,89.2145236
2174929,0.410494922,-0.037902078,0.031265259,85.23145073
2175052,0.283170007,-0.120309912,-0.010375977,88.79263125
2175512,0.204972616,0.315949411,0.348274231,88.95739733
2175513,0.37454127,0.317175415,0.256454468,86.2669561
2175672,0.2814327,-0.020422838,0.019638062,84.67778143
2176643,0.318885514,0.123680675,0.040298462,82.29466591
2178624,0.188876394,0.098368811,0.103775024,83.40724474
2178857,0,-1.149000049,-1.149000049,0
2179091,0,-1.60800004,-1.60800004,0
2179783,0,-1.540668845,-1.540668845,0
2179846,3.482249572,3.042159779,3.912125587,48.90289961
2180125,1.742472746,0.18301681,-0.518943787,14.21521141
2180200,1.941788748,-0.363609026,-0.405212402,48.73388088
2180608,0.381442481,0.468999863,0.574386597,89.88895923
2180609,0.368392413,0.354857942,0.231674194,89.66120726
2180611,0.341390625,0.285201316,0.245178223,85.4970647
2180617,0.334974291,-0.05527242,-0.242477417,37.3371683
2180618,0.265990346,-0.006219135,-0.043624878,87.97808539
2181350,0.064757335,0.064067465,0.069137573,79.72449347
2181364,0.575080261,0.170615384,0.305999994,45
2181472,0,-0.611999989,-0.611999989,0
2181571,0,-0.91900003,-0.91900003,0
2181586,0.233831211,0.079095929,0.105117798,89.69768427
2181805,0.368474297,-1.354923102,-1.302000046,7.899498657
2181816,0.382658296,0.826800013,0.91900003,11.48029749
2181904,1.743363875,-0.691854833,-1.301999986,81.27883991
2182209,0.514169282,-2.307058846,-2.298000097,9.747254036
2182341,0,-1.302000046,-1.302000046,0
2182721,0.12450242,6.284971476,6.284971476,0
2183953,4.646133403,4.046008667,4.07194519,89.78856444
2184385,0.381837547,-0.735671624,-0.83455658,48.5972695
2184451,3.745890141,3.495256524,2.944274902,89.8396882
2184466,0.474160662,-0.264939119,0.04838562,45.90828927
2184555,1.595008705,6.116776686,6.288970947,46.01037249
2184605,0.038045279,-0.239657084,-0.225753784,3.852950964
2186008,0.272410558,-0.137124322,-0.19480896,81.12079635
2188008,0.538095355,-0.486637316,-0.747673035,81.61173256
2189839,0.361214988,-0.041231103,0.030853271,86.8816664
2190007,0.450565902,1.807852664,1.757397652,6.949883708
2190346,0.038588048,-0.985099987,-0.983398438,4.298847601
2190657,4.624988096,-0.784917659,-1.551442742,77.88763855
2190702,2.383378287,3.963565194,2.911000013,23.09973947
2191531,1.704279766,6.937672685,7.624694824,9.687088621
2191762,0.801817072,-0.268302016,-0.673431396,54.1259844
2191772,3.648791383,4.117247937,4.696884155,41.56071101
2192225,0,2.351104736,2.351104736,0
2192495,0.146550043,-0.08562658,-0.125091553,89.66391095
2192875,0,-1.209579468,-1.209579468,0
2193535,0.271996093,-0.021060623,-0.134460449,52.82788341
2193551,0.267617007,0.096840939,0.014854431,84.24347089
2193552,0.326911726,0.178202113,0.201705933,89.34491388
2193553,0.218996589,-0.042160968,-0.030288696,89.67332104
2193983,0,-9.574417114,-9.574417114,0
2194043,0,-8.315063477,-8.315063477,0
2194599,0.488102726,-0.448398247,-0.664505005,87.28885786
2195391,1.406168785,-0.553009071,-0.399843901,37.75399949
2195393,0.087302598,0.023343362,0.028091431,30.21262958
2196437,4.098070639,0.059854578,-0.16998291,82.64608572
2197386,0.099943874,0.223451288,0.254302979,31.34778134
2197407,0.286695473,-0.026300706,-0.108810425,89.68483624
2197545,2.069725842,8.680177307,9.14225769,32.74785152
2197546,0,0.620101929,0.620101929,0
2197655,0,5.039794922,5.039794922,0
2197659,0.044363561,-0.981650176,-0.984718323,2.06777333
2197678,1.113943719,-1.290197449,-1.828941345,13.50278423
2198513,0.301693268,0.039357704,-0.050888062,76.06214238
2198522,4.628432798,5.106419439,7.153874874,38.2091717
2199290,0.099545372,-0.015449427,-0.014602661,32.517516
2199582,1.874123599,-2.392346087,-2.992843509,52.38973832
2199604,0.39640488,-2.60834189,-2.576156616,9.04335471
2200235,0,-0.076614454,-0.076614454,0
2201594,0.201328615,0.034075954,-0.049301147,89.52656945
2201795,0.187371563,-0.065051693,-0.080627441,85.20807204
2201977,4.246886737,-4.639471098,-3.290504456,78.51770468
2202050,0.203051407,-0.015169573,0.035171509,88.6069602
2202123,0.195364646,-0.009442123,-0.018440247,89.8701804
2202339,0.227808061,0.171937688,0.24471283,75.87998695
2203536,3.243398191,-0.982304675,0.229232788,39.12822902
2203580,2.20325072,0.131196594,0.223167419,55.61733729
2203777,0.160997709,-0.05587981,-0.016647339,89.94984734
2203999,0.110448583,-0.014521738,-0.019134521,86.93648898
2204141,0.219805564,-0.016076689,-0.065536499,83.60724467
2205174,0.005260397,0.392278729,0.394668579,1.019986825
2205175,0,-0.02154541,-0.02154541,0
2205278,0.006918582,0.035876335,0.037582397,1.444617131
2205320,0,-3.924216509,-3.924216509,0
2205508,0.276218184,-0.025085504,0.015350342,64.26920995
2205559,0.203551158,-0.00199713,-0.056556702,88.41366868
2206869,5.131960866,5.225212148,9.541185379,7.37126181
2207366,0.93899389,0.610740662,0.841636658,29.73955902
2207367,1.298318242,0.291878836,-0.531143188,19.60768344
2207423,1.674904637,0.487856316,0.257789612,35.34173011
2207588,0.454009054,-0.508787034,-0.76083374,70.90394525
2207890,0.477549582,-0.687848483,-0.910247803,79.30249542
2208046,0.438978925,0.24490652,-0.005828857,22.11068495
2208156,0.106478323,-0.914582859,-0.954940796,4.761587791
2208583,0.026740901,0.149416901,0.154174805,6.595322922
2210773,0.224063458,-0.105058652,0.00227356,19.00457279
2210811,2.732630705,1.376160317,0.221359253,45.98493617
2210856,1.03041824,-0.188570518,0.157608032,24.12856947
2211561,0.346667342,-0.521552733,-0.66859436,43.95225916
2211579,0.451726179,0.501893484,0.582519531,37.827715
2212734,0.295980856,-0.529037092,-0.630783081,23.74169853
2214456,0.187480671,0.207356587,0.206069946,89.84799438
2215558,0.270113686,0.089336533,0.03565979,87.62047776
2216654,0.249174059,0.055357689,0.111701965,85.16447281
2216978,0.258276185,0.009648759,0.01058197,88.34333322
2217587,0.039681137,-0.960815002,-0.958335876,2.177113886
2218705,0.286694192,0.064692522,0.104789734,89.13451597
2218848,2.229546733,2.795958166,2.470816135,24.17645998
2218952,1.973823374,-0.370882505,-0.733009338,89.76608157
2219236,2.73338447,0.766880948,0.129699707,73.35922145
2219345,4.727105762,2.347482412,1.07739079,68.93983789
2220809,0.209653137,0.023547537,0.026977539,81.85835094
2220901,0.275096671,-0.248125029,-0.354034424,89.4533426
2220904,0.272966518,-0.105522869,-0.096092224,89.83852018
2221016,0.168542881,0.081773974,0.028137207,79.54609261
2221709,0.359683653,0.602619906,0.690185547,40.59512177
2222581,0.30237892,0.013936008,-0.025787354,81.23041878
2222584,0.204092627,-0.021410867,-0.061386108,89.62393083
2222805,0.075271285,-0.019314575,-0.010940552,6.593793636
2222923,0,9.537887573,9.537887573,0
2223124,0,0.381057739,0.381057739,0
2223264,1.85739977,3.701215676,3.241749048,21.78974829
2225577,3.240665509,-1.114383165,-1.209108829,79.84509289
2227043,4.679798442,1.872139728,3.452438831,39.31458523
2227093,1.853502827,0.656123928,0.474051923,39.88785387
2227205,0.679650592,2.028541847,1.862688899,9.23302283
2227454,5.397286566,-2.119340613,-2.33913517,87.48403879
2227800,0.384806194,0.10891872,0.041343689,88.87249526
2227977,0.245448471,0.047309374,0.03338623,87.22114736
2228584,0.259545114,-0.116511076,-0.092697144,89.44574095
2228790,4.293112436,4.674678807,1.922543943,81.382546
2229208,6.512860077,1.092741828,2.205059767,82.13181421
2230564,0,0.721851826,0.721851826,0
2230567,0,0.032321721,0.032321721,0
2230568,3.213993096,0.423337656,0.745793819,89.59087032
2230905,0.298734322,0.050355184,-0.011169434,84.38308252
2231166,1.397801625,1.843357947,1.762132406,18.969919
2231207,0,5.54018259,5.54018259,0
2231414,0.531512737,1.766920805,1.766920805,2.9014597
2231620,7.237953089,1.122813535,-0.526724398,88.52082618
2231951,1.773196065,-0.140290025,-0.02873042,68.34210961
2233112,2.742853584,3.406209,4.702212334,81.2702247
2233347,0.211885906,0.135717371,0.162948608,86.64003665
2233801,0.439480805,-0.580133237,-0.742980957,86.23776368
2234205,4.875661924,0.011737596,-0.713,88.47134033
2234246,0,2.45600009,2.45600009,0
2234480,0.315795084,-0.331712152,-0.343002319,79.49740186
2234533,0.203089187,0.138399029,0.177238464,88.18495649
2234554,0.998526407,0.992311665,1.38230896,27.01362748
2234575,0,2.135627985,2.135627985,0
2234679,0.334445397,0.098871165,0.007293701,89.96449604
2234794,0.547582777,0.002082992,0.286697388,34.79366606
2234944,0.151682389,0.141010631,0.09753418,34.19322132
2234945,0.21119992,0.214086535,0.268447876,89.12988327
2235262,0.536532929,3.226303161,3.136499882,11.23273687
2235279,0,4.965576172,4.965576172,0
2235423,2.377036443,1.459892983,1.18991828,69.82376074
2235463,5.295595796,-1.967726096,-0.16758728,87.05250795
2235590,0,-9.516952515,-9.516952515,0
2235964,0.953369089,1.400129159,1.221042871,89.85104228
2236416,0.513544872,1.656445548,1.594538331,20.73528616
2236582,3.518688612,7.035696761,8.920795441,3.392462691
2236630,4.776979315,4.768898364,5.880159378,70.60900734
2236918,0.144149491,-0.010730503,0.004440308,82.94914807
2237330,0,-1.908172607,-1.908172607,0
2238038,0,0.321304321,0.321304321,0
2238100,1.914927025,-0.556014703,0.084617615,40.94055803
2238101,0.027807133,0.226078033,0.223258972,6.209054075
2238208,3.355287186,0.690839202,0.135276534,80.30667927
2238495,0,2.741363525,2.741363525,0
2238647,0,1.383850098,1.383850098,0
2238834,0.221787202,0.02402157,-0.016891479,87.59543597
2239318,0.283955345,0.191948546,0.126159668,87.87618366
2239624,0,2.56658411,2.56658411,0
2239952,0,-0.322555542,-0.322555542,0
2240012,2.589889445,-0.095961619,0.04189853,83.54673234
2240013,0,0.20470424,0.20470424,0
2240948,0,-0.165199921,-0.165199921,0
2241058,0.198249476,0.149174183,0.169677734,89.83393237
2241414,5.956489617,-0.141482396,2.669616461,86.56315964
2241526,0.261906896,0.21374411,0.141189575,82.19522254
2241920,0.510076278,-0.065324873,-0.065887451,89.8886871
2242693,0.578532127,3.264094989,3.131615877,4.756672928
2242932,0.392293029,0.001440241,0.020690918,88.78126563
2243342,0.02912551,-0.956509227,-0.954498291,0.286694701
2243363,0.240513234,-0.055166221,0.021270752,89.98138719
2243719,0.110390751,0.090191205,0.105751038,82.44744839
2243990,3.515906672,6.843600039,8.837267876,63.41646203
2244215,0.349818258,0.029506121,0.00163269,88.02906384
2244488,0,-9.274999619,-9.274999619,0
2244932,0.372497765,0.268020405,0.192268372,87.73534516
2245000,0.373023026,-0.028385308,0.042182922,85.22166968
2245137,2.92192882,1.474318505,2.345192075,48.02912781
2245192,0,0,0,0
2245371,0.578777565,1.607307394,1.594538331,2.966975124
2245477,0.382511472,0.223869025,0.000320435,89.38648566
2245597,0.395674046,0.162322174,0.074142456,89.68744079
2245638,0.431591772,-0.619874845,-0.774887085,79.66836253
2246234,0,-7.063000202,-7.063000202,0
2246236,0,-6.326000214,-6.326000214,0
2246441,0.224008802,-0.200471279,-0.276741028,89.60449196
2246475,3.527543764,0.212480007,0.261999995,87.24681249
2246644,0.175081648,0.059281562,0.05607605,79.44320576
2246980,0,0,0,0
2247007,2.104077167,1.659500028,1.756500021,15.88604918
2247155,1.886704848,1.800849372,1.831620216,14.0662098
2247293,0.163534499,-0.032269863,0.007858276,78.89870354
2247479,0.165589786,0.017726965,0.004150391,56.32130848
2247523,0,0,0,0
2247620,0.29411776,0.117441767,0.034233093,89.48651013
2247667,0,0,0,0
2247668,0.286820544,-0.521513146,-0.533828735,89.64176003
2247669,0.110687087,0.074559726,0.071685791,88.18500583
2247794,0,0,0,0
2247956,0.17039694,0.147723706,0.129486084,87.9043977
2248007,0.526880411,0.281295468,0.295043945,85.26780727
2248084,0.190621597,-0.094546088,-0.125366211,81.39979189
2248864,0.398618823,0.212142649,0.120925903,80.82328431
2248878,0,0.538711846,0.538711846,0
2248934,2.926953058,0.814902455,0.286705643,78.77859706
2248936,1.656357405,0.46628045,0.984046936,42.72164245
2248942,0.356632681,0.335343953,0.376701355,85.05433737
2249118,0.057460845,-0.660799682,-0.660799682,0.085338782
2249140,0.216653914,-0.001455497,-0.029747009,88.1155427
2249646,0.100126967,-0.010384338,-0.023757935,4.861270546
2249912,3.03822245,5.22131287,4.57531929,14.84017673
2249932,4.551320634,5.827498632,6.338842392,74.03867911
2250150,0,2.547430515,2.547430515,0
2250218,0.186199706,-0.093795926,-0.113708496,88.5640792
2250226,0,-8.843999863,-8.843999863,0
2250374,4.150685176,1.357154773,2.463708758,81.15987484
2250920,0.19530409,-0.112085383,-0.105957031,81.14323705
2250947,0.252696766,-0.111188956,-0.149017334,89.75770377
2250957,4.103684284,2.650007299,2.405048966,69.54885681
2251238,0.2944461,0.03831234,0.065254211,85.13002902
2251499,0.968518115,2.982967108,3.20234251,10.38931914
2251873,0.456835599,-0.194463501,-0.092796326,71.1006327
2252633,0.129500002,-0.210500002,-0.210500002,0
2252774,0.155661399,0.039294675,-0.005981445,88.37833289
2252948,0.251891595,0.071893471,-0.010040283,29.30566696
2252983,0,-0.050827026,-0.050827026,0
2253045,0.342553362,-0.076668197,-0.066101074,88.33111263
2253126,0,-19.61330032,-19.61330032,1.600627133
2253163,5.151833434,-2.321178505,-0.960673422,70.96278534
2253171,1.028585856,2.201801716,1.946545422,11.2025868
2253216,2.976580679,-1.903515913,-0.802082062,69.60712507
2253245,0,1.204320192,1.204320192,0
2253402,0.448475724,0.168133236,0.25592804,77.83188256
2253697,0,-0.086502075,-0.086502075,0
2253880,0.18322645,-0.171326701,-0.100280762,53.51055584
2254312,1.512383674,-1.247309559,-1.04006958,87.5292857
2254365,3.01941343,0.653493495,0.779999971,89.95297818
2255000,2.077300798,4.906280878,4.362235546,51.99823493
2255113,0.271604808,0.107723305,0.004081726,73.06566212
2255254,6.674256844,1.228942871,0.413658142,54.16741637
2255375,0,-2.710319042,-2.710319042,0
2255449,0.311666932,0.186973928,0.095535278,86.39687388
2255761,4.160040514,-0.101981954,-0.588973999,68.70230861
2256136,0,0,0,0
2256167,3.909915947,0.540305267,-0.238223076,43.4379533
2256286,0.02865657,-0.385626221,-0.382606506,3.232366603
2256856,0,0,0,0
2257000,0,0,0,0
2257033,0.149991494,0.014206689,-0.000778198,88.4768772
2257107,0,0.067230225,0.067230225,0
2257392,0.810383399,-0.235479736,-0.546951294,80.76470863
2257407,0.430411666,0.10949486,0.026062012,89.1666044
2257411,0.368839592,-0.016296099,-0.09777832,80.5933261
2257467,3.818829237,4.498571991,4.947617769,81.83588436
2257474,3.200740083,1.954795005,0.897853076,59.61372523
2257888,0.520879151,-4.547632339,-4.470110893,5.913679615
2258103,0.245409027,-0.020068029,0.034225464,63.6056612
2259085,1.65646889,1.261703722,0.885854602,57.99682388
2259587,0,-2.353500366,-2.353500366,0
2259745,2.911780415,2.857263394,2.23259306,43.07623055
2259746,0,2.75820446,2.75820446,0
2259754,6.506289427,1.697186174,-3.478729248,2.938430868
2259876,1.078769304,1.607580445,1.321599364,18.09413516
2259991,4.109966998,-0.225837667,0.732027173,39.44863295
2260000,3.669414009,-0.590543444,1.35635668,54.77388628
2260085,0.286229878,0.367340362,0.381141663,54.79206275
2260344,2.56893602,0.5703695,0.076614454,49.90762165
2260345,0,0.402225882,0.402225882,0
2260494,0.456137772,-0.755378604,-0.964492798,43.15453666
2260708,0.554316697,0.527923458,0.770233154,85.20794464
2260719,1.816804115,6.144319622,6.335057735,15.45514151
2261354,0.344976245,0.056614467,0.021759033,64.1959971
2261433,0.02345418,0.036116282,0.031448364,19.09743315
2261459,0.284238832,-0.017367565,0.045188904,82.32513744
2261498,0.355887859,-0.85811942,-0.937698364,0
2261505,3.102769017,-1.608752347,0.251113892,70.05544897
2261533,1.289989975,-0.316299438,-0.277793884,30.75716165
2261536,0.232052446,0.169525694,0.144813538,89.90291731
2261579,0.100380393,-0.09958249,-0.130172729,79.47573944
2261956,3.714903844,0.828276985,1.024718285,60.80723971
2261995,6.607105588,1.739706676,-1.12291491,72.30279584
2262146,2.96825311,3.155220606,2.863465309,31.18812044
2262171,0.267030305,0.149748173,0.126754761,89.73260084
2262315,6.627863806,-1.294066,-0.821211159,60.27727208
2262405,1.444467804,6.007430102,6.198588371,7.676704624
2262749,6.595739774,0.828393759,2.573766828,89.97618618
2262939,0.01479228,0.045341492,0.049179077,13.04936031
2262956,5.21318802,4.334280175,5.789356709,79.32459272
2263189,0.47670642,-0.761172976,-0.943634033,69.82063181
2263554,1.362629797,3.298774611,2.633621931,15.31043252
2263598,0.405839608,-0.581353936,-0.778335571,24.75763769
2263961,0.205032342,0.017809721,0.035293579,30.83408421
2264795,0.261524148,-0.044474253,0.020996094,39.76216543
2264836,3.322370252,3.013651262,3.284844637,89.13222654
2264903,0.148640342,-0.954773699,-0.92477417,11.88455283
2264904,0.37748078,-0.500629174,-0.336051941,49.02216385
2264938,0,-1.05770874,-1.05770874,0
2265165,0.050136004,0.229620361,0.246116638,9.319766092
2265415,0.107576139,0.488178798,0.493621826,15.81984457
2265996,2.385705065,3.806780707,4.146757126,40.93844753
2266108,4.916244953,2.726436646,0.994821191,83.11577342
2266225,0.350425882,6.209362086,6.272808552,3.24227033
2266226,0.201246608,0.025854257,-0.002639771,56.22857348
2266228,0,-0.129290834,-0.129290834,0
2266234,0.299161378,-0.454135623,-0.376342773,67.0991256
2266271,4.181829632,5.61955971,6.526593685,84.23946655
2266290,0.186392849,-0.144403698,-0.128860474,87.44108345
2266349,3.425658233,-7.465120398,-9.052474976,38.31267897
2266350,0,-9.536102295,-9.536102295,0
2266351,0.429525106,-9.698114014,-9.646240234,0.603391507
2266352,0,7.821853638,7.821853638,0
2266418,0.221659962,-0.096990881,-0.053070068,80.19818386
2266476,0.423318934,-0.034343017,-0.098968506,89.90777962
2266533,5.392792156,-1.712063522,1.446141958,73.97826405
2267069,0,1.024414063,1.024414063,0
2267148,0.287518652,-0.04404815,0.022872925,89.80010928
2267222,5.902869801,3.327129912,4.929811716,89.63805664
2267241,0.314321104,-0.365420134,-0.109977722,30.50531295
2267336,1.809833717,4.07130371,4.735731125,46.83014994
2267616,0.816917811,1.5040627,1.364694953,49.41349922
2267875,0,-1.889022827,-1.889022827,0
2267891,0.274996472,-0.10923552,-0.114257813,62.3033772
2267990,0.00957489,9.780311584,9.780311584,0.163860053
2268796,0.044237227,0.048029165,0.043441772,29.67282991
2268821,0.17308785,0.028978458,0.024681091,85.93715148
2268903,3.68310034,0.067456632,-0.400430232,52.44982572
2268915,2.384754655,-1.458873438,-1.460507631,45.83474208
2268967,0.301012597,-0.421096314,-0.377685308,55.53995642
2269609,0.240702372,0.297262039,0.267059326,89.90380526
2269682,0.031621237,-0.208907196,-0.212005615,4.68671798
2269961,0,2.260126352,2.260126352,0
2269964,0,5.291185856,5.291185856,0
2269965,0,4.683058739,4.683058739,0
2269967,0,-1.254561663,-1.254561663,0
2270905,0.322410892,1.949368144,1.936968327,11.25611723
2271017,0,-0.065856934,-0.065856934,0
2271120,0.322184693,0.199002857,0.200447083,88.00288144
2271414,3.343201635,-2.84921025,-3.495641232,60.75606079
2271531,0.245640338,-0.166665691,-0.149688721,88.64742893
2271719,4.233853192,3.459937139,3.132908583,81.75571173
2271750,0.249286687,0.912577311,0.976821899,39.36895018
2271876,0.515540377,-0.693468556,-0.832687378,86.65969108
2272790,0.496469842,0.647466886,0.630508423,17.77892473
2272865,0,-0.100860596,-0.100860596,0
2273072,2.059773808,3.230008259,2.980872154,31.25626916
2273359,1.237142052,0.858919844,0.543483794,11.349131
2273401,0.642195409,6.231476985,6.43082571,9.596421144
2273403,0.42057079,6.063109414,5.990292549,3.00115539
2273406,0,6.263231754,6.263231754,0
2273411,2.76862232,-0.647946588,-0.229843363,35.1836136
2273450,0.35308852,-0.422600334,-0.43397522,46.03708552
2273460,4.719931374,-4.840606962,-5.873156309,46.29643383
2273489,2.614617873,2.38622106,0.936132848,7.004448334
2273542,0.315571092,0.223490736,0.030395508,70.0724475
2273556,0.326270901,0.101829996,-0.057815552,43.85791661
2273639,0.218751264,-0.242182814,-0.285636902,24.20171242
2273751,0.153936097,-0.179009888,-0.15977478,42.32289394
2273798,0.470770017,0.57621078,0.908851624,89.03461313
2273859,0.219823633,-0.118623302,-0.065948486,72.83738138
2274249,0.284296515,0.009717903,-0.049728394,88.01314849
2274314,1.228873732,3.937564,3.541024327,24.97104544
2274396,0.173473333,-0.044508202,-0.027923584,86.06095038
2274870,1.412582793,5.390944123,5.295974255,9.220300226
2275286,0.394811406,-4.418896993,-4.358642578,2.436153294
2275460,0,-0.663193882,-0.663193882,0
2275461,0.206499904,0.386065036,0.386065036,2.438882202
2275463,3.139991387,0.561709026,1.162983477,79.84897247
2275472,1.999020691,-2.089681413,-2.554691315,44.94899692
2275476,0.009396324,-0.041954464,-0.04082489,6.565572158
2275555,0.425102478,-5.343658956,-5.458786011,7.113118923
2275719,0.467052874,-0.306126287,-0.028915405,84.49494961
2275832,1.568577821,0.882142678,0.608145773,46.8672124
2275945,0,0,0,0
2275958,0.45402596,0.718259023,0.98601532,50.32044714
2275963,0.568330737,0.235220102,0.081207275,89.91704116
2276040,0.516924626,0.391405145,0.498474121,71.18975249
2276114,0.542492849,-3.284456491,-3.265691042,4.390107149
2276236,0.486692995,0.431193063,0.024749756,59.53058541
2276993,0.430184067,0.096405139,0.009613037,75.71327842
2277170,2.751433494,1.491191405,0.305270046,80.60519107
2277252,3.693896502,-0.567064433,-0.171185419,85.30809441
2277257,3.689809371,7.131439552,8.663683414,49.9445879
2277268,0.598870273,1.630669009,1.532289028,5.931506223
2277379,0.252960649,-0.014154341,-0.013305664,72.02121767
2277497,0.266727915,0.087724714,0.044296265,84.39877887
2277716,0.211625437,0.125030134,0.204925537,89.73068405
2277727,0.354765069,-0.19620139,-0.058517456,59.40382888
2277792,0.177732656,0.956328817,0.992843628,31.86859515
2277983,0.227014896,-0.012821557,-0.005264282,89.43962407
2278066,0.185364927,0.067503202,0.067825317,85.10897142
2278253,0.063918747,-0.117373657,-0.113647461,7.858396292
2278280,0.332229863,-0.130155407,0.004684448,62.09774452
2278362,0.452493033,0.123171628,0.235023499,67.14993864
2278471,0.260845854,0.055243457,0.141769409,78.71953091
2278599,0.011053935,-0.618536562,-0.618103027,5.094076006
2278814,0.504998395,0.083376943,0.031738281,72.934537
2278858,0,0,0,0
2278879,0.359240541,-0.783316148,-0.86580658,70.48387437
2278880,0.685280584,-0.38488245,-0.350280762,82.66822286
2278881,0.137759334,-0.970329893,-0.973014832,3.027699493
2278883,0.405935833,-0.561448821,-0.564926147,62.31389957
2278984,3.28615594,-2.952843761,-3.208328247,82.91587276
2279683,0.195164513,-0.117218695,-0.064376831,54.35438467
2279729,5.078840155,-1.163708775,1.399410844,86.50137933
2279732,1.890525108,3.648151544,4.280963421,47.88300656
2280027,0,-1.00819397,-1.00819397,0
2280262,0.300849111,0.07962977,0.044281006,89.06962274
2280599,0.28621557,0.229630584,0.278625488,86.66602525
2280611,0.299092349,0.079093151,0.082015991,89.15147855
2280620,0.390184324,0.142674932,0.071151733,85.74428402
2280628,1.162893262,0.822034357,0.498009145,45.61046709
2281091,0.264227086,0.149862091,0.088035583,88.53380101
2281387,0,-5.095016956,-5.095016956,0
2281415,0,-6.610592842,-6.610592842,0
2281481,2.804070861,2.379740542,3.119740009,20.86088459
2281494,0.042230916,0.010372639,0,17.96337225
2281554,0.292315157,0.050558547,-0.049804688,73.17598303
2281608,0.404324099,-0.326506451,-0.107223511,46.63060087
2281666,0.4631235,-0.237998677,-0.227096558,89.54717501
2281689,0.219752681,0.043245951,0.024917603,76.14031585
2281741,0.533214411,-0.26776354,-0.040802002,39.9530754
2281749,0.261634543,0.151668624,0.020736694,85.48238806
2282003,0.565209152,6.922076452,6.715940952,3.720307693
2282113,0.387689031,0.42755835,0.422058105,85.86923419
2282196,3.675596477,9.831062185,10.56114578,88.38454062
2282624,0.275603717,0.0155315,-0.014137268,89.53153215
2282897,0.373533564,0.077763567,0.091339111,89.37981681
2282949,0.300719864,0.020551352,0.020675659,89.09482678
2283113,0,0.550666392,0.550666392,0
2283301,0.173808463,-0.10209702,-0.099746704,50.79443049
2283369,1.036918608,-0.450991381,-0.481249243,47.50165826
2283398,0,3.209427357,3.209427357,0
2283420,0,-2.99044919,-2.99044919,0
2283506,2.621604333,-6.469330528,-8.071100235,9.418804839
2283654,0.40193153,0.020652771,0.012672424,55.75392502
2283721,3.061502002,0.903294599,0.396252483,89.86727769
2283784,0.255657852,0.125671345,0.129379272,89.85493146
2283907,0.008872986,-0.805381775,-0.805381775,1.090528196
2283959,0.531571449,9.504980632,9.255983353,0.272065785
2283962,2.190812072,0.663017821,1.082179189,88.99693662
2283968,0,1.254561663,1.254561663,0
2283976,0,0.809240162,0.809240162,0
2283977,1.620295387,0.617335695,0.866701007,25.54423827
2283982,0,-0.023942016,-0.023942016,0
2283987,5.002271519,1.836020674,0.560243189,81.26467138
2284217,1.094169855,-0.734449872,-1.022324085,58.72345564
2284253,1.19468273,0.033854299,0.735855103,50.65781243
2284277,0.415916394,-0.160772314,-0.039962769,65.92060988
2284421,0.813594892,-0.632487587,-0.724268109,24.71574216
2285125,0.295284655,0.04206573,0.013061523,89.54990263
2285260,0.179370979,-0.077829488,-0.065483093,89.17260934
2285322,0.296900205,0.150413913,0.073440552,43.81627228
2285451,5.019735074,-2.167970635,-1.016338587,88.76003482
2285452,0,8.066065788,8.066065788,0
2285454,4.103559473,0.8198681,1.709512234,35.08378583
2285584,0.348456362,-0.181862042,-0.019989014,55.85715539
2285655,0.191306961,0.035682868,0.070877075,79.98948597
2285680,0.025984939,0.796618229,0.794136047,5.61009208
2285690,4.657017691,-2.537926312,-2.202665567,49.66764052
2285950,0.294092181,-0.491994692,-0.598550439,83.21356803
2286003,0,5.858790398,5.858790398,0
2286099,0,0.079971313,0.079971313,0
2286245,0.380415345,-2.831429462,-2.874326944,4.257211034
2286309,2.775405114,2.829658567,1.944091797,64.9946253
2286411,0.234070594,-0.018573315,-0.041412354,89.22106411
2286434,0.273948108,0.189010088,0.162597656,89.65158502
2286502,0.307159979,-0.071481221,0.045608521,31.26615336
2286732,0.346703174,0.084795858,0.028213501,76.42288048
2286813,0.499792966,0.309410583,0.051712036,89.16736939
2287329,0.119988807,0.100740918,0.120864868,84.76696756
2287342,3.923131589,2.647121703,1.580221415,80.24381243
2287927,0.273110398,-0.035925989,-0.002990723,89.65279323
2288949,0.003094761,-0.213984634,-0.214202881,1.913782143
2288983,0.221653701,-0.149988511,-0.023773193,21.08793197
2289110,0.552839668,-0.225022855,-0.169265747,89.90845804
2289181,0.200834544,0.111940272,-0.015029907,7.469779915
2289292,1.841472658,9.144615255,9.067428589,2.681054844
2289836,0,-1.394622445,-1.394622445,0
2290473,0,0.001159668,0.001159668,0
2291550,0.836645959,5.319804796,5.252878666,10.75283414
2292120,0.300868822,-0.16494258,-0.09753418,89.02033419
2292122,0.197941186,-0.010425618,-0.019699097,87.72290277
2292495,0.437369386,-0.015003674,0.015457153,77.23117059
2292860,0.494571745,-0.021300864,0.121826172,83.75137575
2293234,0,9.563034058,9.563034058,0
2293485,0.210200354,0.890195077,0.952903748,42.78600618
2293676,0.215417557,-0.454156574,-0.499977112,85.65803503
2293765,0.530238906,-0.210644696,0.012779236,78.42957295
2293784,0.72812367,3.994166911,4.206612587,13.92422169
2293935,0.308366076,0.51758756,0.36819458,66.73356279
2293979,0,1.290481567,1.290481567,0
2293980,0.207390449,1.684318542,1.708259583,2.314415199
2294030,0.106810326,-0.95471333,-0.942153931,4.542343933
2294032,0.143069821,-0.93016328,-0.933517456,68.67246775
2294238,0.310203539,0.063907199,-0.009796143,88.75023704
2294272,0.105037436,-0.944415911,-0.962738037,7.54405006
2294273,0.175274838,-0.974884107,-0.963119507,9.277159234
2294320,0,-0.156295776,-0.156295776,0
2294465,0.17288977,-0.056926757,-0.025909424,84.78918305
2294469,0.270105338,-0.022952256,-0.009117126,88.23524512
2294485,3.141028519,6.032981176,6.196194172,85.25778796
2294486,0,-0.277727395,-0.277727395,0
2294766,0.027159242,-0.587005842,-0.584213257,4.655970869
2295087,0.276165508,0.043007776,0.02671814,89.53221714
2295457,0.138135914,0.078917751,0.107315063,89.0736466
2295556,0.445919887,-0.153471413,-0.01234436,79.1161673
2295786,1.713280414,7.02690163,7.249649048,18.54652454
2295958,0,-0.610290527,-0.610290527,0
2296018,0.240301022,-0.004867142,-0.036849976,88.20689574
2296019,0.10316762,-0.089529684,-0.099990845,89.85791254
2296020,0.281583963,0.020469068,0.019607544,86.660912
2296582,0.309878019,-0.694145457,-0.804855347,45.37816711
2296772,0.197234517,-0.078604116,-0.065315247,88.46724449
2296806,0,2.962824583,2.962824583,0
2296930,0,-0.612915635,-0.612915635,0
2297137,0.27893606,0.082444763,-0.007995605,69.07156578
2297197,0.319919462,1.27132111,1.22822547,4.319112905
2297198,2.947837593,0.978541462,2.097320795,40.21588372
2297252,0.611548463,3.006638497,3.107673883,5.878251908
2297404,0.315223694,-0.315223694,-0.315223694,0
2297406,0.124057471,0.94494115,0.941017151,25.61470116
2297545,0.217513234,-0.010730034,-0.023002625,89.14104766
2297584,0.247441743,-0.054376734,-0.047012329,89.51561303
2297829,2.48910658,0.980727652,0.244208574,56.75298658
2297934,0.317288819,0.157650202,0.245315552,89.81696774
2297968,0,2.743755102,2.743755102,0
2298493,1.086793849,2.370259672,2.633621931,23.33903896
2298682,0,0.074615479,0.074615479,0
2298762,0.154546297,-0.038766446,-0.040893555,89.83744066
2298763,0.173450328,-0.038843289,-0.033729553,88.66194172
2298926,0.538016272,-0.007241126,0.049728394,39.27109005
2298927,0.610182723,-0.218610292,-0.096473694,86.26131543
2298961,3.367197884,4.031598512,4.772841215,84.90715213
2298965,4.3387284,4.472956825,2.451737404,69.56459629
2299433,0.286390297,0.270899903,0.318908691,74.13483864
2299905,5.78720561,0.753218562,-0.504882813,89.0527979
2299939,0.195623463,-0.452037869,-0.48878479,42.3485021
2300238,0.39701972,-0.022408749,-0.027557373,89.2744793
2300250,0.216625793,0.116079595,0.106666565,89.65159161
2300251,0.40732271,-0.128769584,-0.063659668,42.48729022
2300252,0.380754861,-0.507061409,-0.490959167,45.13438611
2300323,0.104499986,-0.106731166,-0.109207153,57.58446064
2300404,0.572708425,-0.474220581,-0.486297607,87.38717211
2300468,0.376688934,-0.249657498,-0.017707825,67.74112285
2300706,0,-0.329202741,-0.329202741,0
2300739,0.097240702,0.662304914,0.701950073,11.29291059
2300777,0.295645316,0.387735762,0.43170166,87.61487765
2300794,4.952721968,0.781934873,0.132878199,88.70859104
2300824,0.783508287,-1.699990798,-1.503604531,9.127724933
2300927,0.331142443,0.104335526,0.020347595,89.30401636
2300968,0.103988469,-0.042685305,-0.050247192,45.68437053
2301020,0,3.538630009,3.538630009,0
2301271,0.862283037,1.359207134,1.618480325,50.94237939
2301473,5.278652276,4.577407087,5.221913338,78.06589006
2301534,1.481559043,0.382898147,0.29688102,82.80979392
2301841,0.467957747,-0.015215787,-0.047271729,88.49159084
2301924,0.183066873,0.923135505,0.932693481,21.86231282
2301930,0.259596738,-0.50377645,-0.368392944,14.74312024
2301992,0.579230374,0.257158932,0.402816772,80.13135438
2302102,0,-2.810792685,-2.810792685,0
2302239,0.333629037,0.304813814,0.110282898,89.13879734
2302346,0.104806649,-0.217250188,-0.221580505,9.99751627
2302912,3.704150958,1.593051019,0.912190855,59.9360582
2302954,3.312550671,-0.214185722,0.65722844,83.07554959
2303090,0.522795029,-0.161440927,-0.264472961,82.86996521
2303091,0.385033835,-0.103302319,-0.050979614,53.48035647
2303190,0.131966863,0.01389454,0.045623779,82.1100578
2303273,0.227336919,-0.003152504,0.045166016,84.82429932
2303412,1.536733303,-9.975888792,-9.998186111,3.365054618
2303611,4.356937848,-8.101973234,-10.16218901,48.64885658
2303977,0.394571643,0.161165965,0.296295166,82.78763143
2304258,0,3.584229469,3.584229469,0
2304568,0.170271129,-0.022220766,-0.025894165,89.50062154
2304900,6.572946017,-1.989616821,-2.653972507,55.10912814
2304907,1.067244727,1.871956425,1.67479527,37.1935827
2305003,0,-0.006866455,-0.006866455,0
2305036,1.986739685,8.466314357,8.169015884,18.18429671
2305088,2.361807906,0.926524131,0.222660758,57.5175245
2305597,0.254503374,-0.832911174,-0.99546814,1.720436324
2305598,0.111280226,-0.922478508,-0.893264771,8.496603026
2305869,0,-0.612548828,-0.612548828,0
2305872,0.202946549,-0.138387698,-0.171936035,89.65689912
2306071,0.40429181,2.839523236,3.08373189,0
2306084,0.215308853,-0.044648419,-0.057846069,89.64483471
2306289,0.39777855,-0.207570615,-0.011650085,44.39999451
2306290,0.227129697,0.965593883,0.924255371,20.02404672
2306523,0.476473496,-0.269545861,-0.013031006,71.61505181
2306746,0.771868395,-1.308806958,-1.22583127,12.23666447
2306836,0.192855808,0.090765729,0.097480774,57.33074013
2307210,1.782749771,0.97403183,0.896835327,77.71085911
2307239,5.358392239,1.083236998,-0.457306474,80.19187871
2307518,0.478332666,-0.005161654,0.219650269,89.07143676
2307520,0.106364264,-0.005868926,0.034713745,74.97229542
2307545,0.295112656,0.405296563,0.277542114,38.1970027
2307816,0.413917522,-0.197907137,-0.090179443,74.73159533
2307943,3.934955907,-1.050643676,0.693000019,76.47120821
2307961,0.192267828,0.024482384,0.003143311,33.88792534
2307962,0.100549869,-0.044320521,-0.062774658,89.93883696
2307963,0.130789097,-0.802691102,-0.734405518,14.39573143
2308249,2.049268942,0.115231152,0.635999978,44.30866566
2308349,0,1.800439715,1.800439715,0
2308369,0.203664721,-0.104860033,-0.005630493,41.64411649
2308470,0.255660829,-4.565166632,-4.539499998,1.19227701
2308659,0.353488623,-0.222357889,-0.219894409,81.92976003
2308660,0.0893557,-0.229974365,-0.246200562,9.409112937
2308661,0.308071744,-0.076865402,-0.015167236,85.65872917
2308749,0.278347751,-0.055743775,0.002204895,80.60088895
2308812,0.12262658,-0.028598659,-0.017913818,60.81343525
2308903,0.267664605,0.343624878,0.283630371,76.98944881
2308916,0.332572205,0.037436849,-0.014282227,86.88210161
2308948,0,2.304419041,2.304419041,0
2308949,0,3.315969467,3.315969467,0
2309080,1.532388432,1.536652834,1.492830336,42.71964841
2309094,0.423498035,-0.53349956,-0.523010254,81.42708207
2309152,0.59705883,-0.585849119,-0.58300592,6.895995032
2309323,0.382647685,0.11437747,0.062286377,83.68845073
2309385,0,1.545771003,1.545771003,0
2309455,2.656831422,0.578975556,2.120130301,35.62929606
2309517,1.318882247,2.16833188,2.066259146,36.09453902
2309549,0.015456153,0.008902917,0.005828857,0.116643607
2309574,2.838028408,1.088530444,1.546654344,84.40759922
2309614,0.11128544,0.115232154,0.152915955,10.108765
2309656,0.465233941,0.567034678,0.709579468,54.56034577
2309667,3.462934856,-0.677610653,-0.36153549,84.02876585
2309700,2.615875322,0.633327231,1.314416766,82.23547943
2309917,0.417553025,-0.393740253,-0.159599304,41.30198627
2309918,0.419325649,-0.493277306,-0.464538574,87.71863608
2309954,0.068292439,0.054249738,0.058143616,39.26465973
2310334,0.234805454,-0.219718636,-0.256057739,66.79932151
2310416,0.446913098,-0.556240238,-0.767593384,82.82377431
2311091,0.755021583,0.895103502,1.000806928,13.37944217
2311259,0.228831844,-0.7576322,-0.853866577,15.41399148
2311274,0.396223797,-0.072837853,-0.010772705,47.78177613
2311335,1.750941196,2.196343384,2.650381327,28.19484171
2311344,0,-0.240617275,-0.240617275,0
2311365,2.588527065,-2.123950789,-2.253012657,79.80233905
2311369,3.412318357,-3.301141598,-1.416213512,48.66994254
2311371,3.581862797,-0.221584985,-0.437540367,89.87817608
2311460,0.422295489,-0.108397744,-0.26990509,49.34316492
2311808,0.396538209,-0.719323607,-0.873245239,35.26240958
2311809,0.215953241,-0.94993277,-0.956344604,35.19748924
2311810,0.427505679,-0.207023996,0.01914978,25.61025613
2312027,0.150115883,0.958829278,0.966812134,22.82584401
2312145,0.33172261,-0.73185596,-0.831970215,46.75861931
2312148,0.180865673,-0.695800477,-0.69493103,49.69612402
2312651,0.243132819,-0.044032725,-0.092185974,86.54121324
2312681,2.358131367,3.887978168,4.435577393,86.06223056
2312731,0,0,0,0
2313080,4.379041839,3.041630396,2.952140808,81.23534997
2313428,0.707650139,-0.221734198,-0.258581668,8.586120446
2313434,0,1.731007814,1.731007814,0
2313508,0,-1.616135478,-1.616135478,0
2313678,1.701155008,9.569246016,9.426259995,9.184870028
2313782,0.332208025,-0.053758821,-0.027870178,89.92968256
2313962,0.42311044,0.347716268,0.11302948,62.668393
2314191,0.212301188,-0.004681702,-0.090957642,89.96318959
2314502,5.274356629,3.054900563,4.951209068,75.85599879
2314669,0.127919715,-0.033490832,-0.022453308,88.0666089
2314672,0.132924739,0.115561568,0.113052368,85.9856545
2314742,0.414979272,-0.758452679,-0.867675781,11.49997616
2314810,0.516023535,-0.034143503,-0.022445679,89.36425829
2315626,0.207809986,-0.197526465,-0.184661865,47.58988771
2315676,5.652403926,4.207411218,4.127729893,87.11366235
2315865,1.127553464,-3.791288753,-3.284844637,11.70673295
2315945,0.119398714,0.654587767,0.628265381,12.62321317
2315984,0.846043633,-0.500621099,-0.495614886,15.32359097
2316155,4.167386274,3.419138438,1.386285126,82.75491794
2316299,0.531047667,9.629638672,9.639053345,0.357073215
2316394,4.337941693,6.157015714,9.38646698,8.164964234
2316555,0,-8.583206177,-8.583206177,0
2316642,0,-9.248794556,-9.248794556,0
2316924,0.074570542,-0.032422076,-0.010696411,27.49947457
2317349,0,9.882354736,9.882354736,0
2318377,5.638755092,-5.59291516,-8.298309326,51.21464676
2318477,0,3.41892004,3.41892004,0
2318606,0.531403779,8.973269145,9.06085968,1.493073725
2318782,0.21382248,-0.084449217,-0.099372864,89.87640003
2318976,4.35008016,5.207627427,7.646116495,24.07554701
2319097,0.292240429,0.045480938,0.071640015,78.30921123
2319596,0.308107546,-0.195462521,-0.165023804,85.98376503
2319638,0,-1.422199249,-1.422199249,0
2319907,1.408201444,8.811410124,8.38235569,11.91453156
2319919,0.159750826,-0.149119552,-0.125793457,86.95434485
2320409,1.897783346,-0.962977335,-0.359141231,42.17034347
2320513,4.581955844,-1.24634259,-1.956122518,88.92880708
2320796,4.963088661,2.323733543,5.621585369,41.62491872
2320927,0.089529365,-0.007743188,-0.003723145,29.57510968
2321037,0.240435734,0.065643873,-0.00894165,41.80927319
2321077,0,-0.926584363,-0.926584363,0
2321098,0,-4.015075684,-4.015075684,0
2321101,0,-2.171539307,-2.171539307,0
2321404,3.873480899,7.787895761,8.760651588,27.50267106
2321416,0.410079436,-0.360355877,-0.240997314,88.71588632
2321471,0.182929752,-0.148995817,-0.143424988,87.84911119
2321623,0.315778613,0.034913894,0.092468262,89.04272898
2321655,0,0,0,0
2321684,0.243394033,0.057761588,0.125427246,86.57256499
2321784,1.599249075,-0.135260131,0.283721566,31.79558051
2321856,0,8.935433388,8.935433388,0
2321996,0.201281736,-0.039500128,-0.082107544,87.80044108
2322159,0.258244719,0.381110794,0.472702026,32.85464992
2322243,0.294372316,0.040043273,0.063018799,87.81482264
2322290,4.856382852,5.943495984,9.342460632,25.77141936
2322496,2.60587274,-0.938693848,-2.074639082,47.47128143
2322571,0.13528458,-0.79573138,-0.743270874,7.722603082
2322573,0.279060172,-0.259725476,-0.287399292,85.92202566
2322701,0.216007714,0.127037066,0.106369019,89.66959037
2322717,0.261732322,0.303292936,0.425765991,79.80232623
2322739,4.319323551,-1.436521053,-3.356670856,47.52073317
2323031,0,5.219359875,5.219359875,0
2323121,0.023476143,-0.011260986,-0.009468079,2.087461185
2323261,5.036943195,-1.242023274,0.14604187,80.37631337
2323293,0,10.24510193,10.24510193,0
2323466,0.277988503,0.069523867,0.014442444,51.85141535
2323484,0.24107517,-0.155927148,-0.108939506,4.492579482
2323769,0.335679403,-0.076031738,0.065040588,87.77274267
2323824,2.498605114,5.625077763,6.651295185,17.41249749
2323937,0.372068355,-0.674384129,-0.686676025,45.04021
2324203,0.449253159,0.187844849,-0.084991455,70.9310948
2324250,0.25024305,0.138165474,0.144622803,88.54244548
2324645,2.796590291,8.558001676,9.147326946,30.34719142
2324955,1.138390252,4.273249954,4.122500062,12.78438859
2325333,0.207408151,0.016223027,0.115119934,82.92805582
2325420,0.173099192,-0.073772287,-0.148086548,84.54060336
2325430,0.204545381,-0.008578064,0.001190186,88.16676769
2325467,0.203554353,-0.003730465,0.003692627,89.11131953
2325592,0.270297607,-0.106838989,-0.118438721,89.61125713
2325666,0,-0.170639038,-0.170639038,0
2325771,2.022569238,1.910044574,1.532289028,35.90073975
2325941,0.451198645,-0.06389376,0.199813843,84.81457838
2325949,0.355990109,-0.1147116,-0.180786133,41.0512716
2326115,0.190904712,0.037055188,0.007728577,34.95663886
2326152,0.337885873,-0.612963272,-0.718597412,27.59251552
2326263,0.343329207,0.124146899,0.015090942,60.40289207
2326271,4.243999157,-1.365277927,-0.349553436,89.25574787
2326401,0.211680861,0.027268817,-0.044761658,87.64678901
2326430,0.089050998,0.005821971,-0.002487183,40.96407631
2326445,0.410463816,0.04554915,-0.08682251,89.27884849
2326446,3.817884398,5.788290129,6.806923151,78.51831093
2326474,0.386033834,-0.176274004,-0.185379028,89.17581082
2326746,0,-0.391967773,-0.391967773,0
2327150,2.596883627,-8.402231828,-9.567230225,14.38623681
2327158,0.271914171,0.345343339,0.456924438,51.56846031
2327370,0.042098963,0.008851485,-0.00302887,2.469178597
2327408,0.189335517,0.038010682,0.037315369,83.09433376
2327514,0.168461024,0.025364478,0.028160095,89.05115741
2327661,4.688669313,-3.164205207,-0.697931096,73.46218976
2327938,0.260284022,0.006185639,0.05909729,84.3363117
2327984,0,1.916558504,1.916558504,0
2328029,0.723294545,-0.238497938,-0.229850382,15.89139619
2328030,3.663601009,0.101306139,0.272947326,61.24960004
2328036,0,-3.34230566,-3.34230566,0
2328168,2.455978801,0.034653137,-0.311255723,34.86718392
2328290,0.207105033,-0.118537582,-0.031402588,88.70104066
2328397,0.167613529,-0.038565853,-0.038131714,86.70641295
2328530,0.500606633,0.072650428,-0.187812805,55.50516084
2328552,0.484594259,0.096278037,0.273590088,70.02819013
2328816,0.402192657,0.109150578,0.101211548,88.89163313
2329055,0.387705006,-0.786501579,-0.960250854,39.41151942
2329165,1.747013039,-0.228532608,-0.0285,89.18419724
2329339,0.111297887,0.126881334,0.150444031,37.50887401
2329363,0.1614751,-0.019148524,-0.013031006,67.92719191
2329582,0.266377889,-0.099267975,-0.085929871,89.87417871
2329603,0.320366073,-0.099846323,-0.033355713,64.14094236
2329623,0,0,0,0
2329820,0.668380124,-0.80748629,-0.854756117,13.06555297
2329895,1.171399447,-8.546212836,-8.696000099,2.355953469
2329918,4.6954096,-0.145095175,1.053448796,89.38979588
2329926,0.40169125,0.204572781,0.110412598,89.98005689
2329933,0.320529479,0.093060017,0.027336121,89.86208861
2329956,0.289485596,-0.314672309,-0.237243652,33.17859601
2329985,0.223576826,-0.068233877,-0.132232666,65.89532942
2330030,0,1.211466074,1.211466074,0
2330206,1.368121564,1.511394236,1.613691926,47.4517877
2330220,0.27992664,0.130822496,0.084457397,87.45452589
2330230,0.245361469,-0.036451176,-0.005775452,89.74674002
2330339,0.485761172,0.255479675,-0.045852661,78.23860704
2330358,3.317247185,4.418124752,5.801327944,56.72027481
2330405,0.068397608,-0.008545087,-0.003410339,44.2783546
2330541,2.782204169,-2.386951346,-3.11964488,45.38806712
2330608,0.427675235,-0.443265336,-0.465499878,85.11368965
2330618,0.548825696,-0.095724637,-0.044052124,79.54854368
2330833,0.175683839,-0.036929103,-0.021316528,89.19972347
2330912,0.160846227,0.037574961,0.010032654,80.33017386
2330926,0.31209917,0.450763827,0.481628418,88.75375445
2331120,0.162936214,0.012822455,-0.013885498,89.26970086
2331516,0.357474324,-0.19629606,-0.101074219,89.51416556
2331774,3.639602343,1.490470352,1.15161097,89.44519726
2332058,2.557070024,1.904185786,1.022355318,50.23844376
2332143,3.024459497,-0.39711239,0.7422252,81.46748749
2332279,0.257904064,-7.563035297,-7.501263142,0.844250831
2332357,0.090900984,0.005191895,-0.005523682,89.65401863
2332361,0.183311514,-0.010194135,0.01600647,88.8725795
2332378,0.186787042,-0.203226365,-0.212036133,69.11826629
2332389,0.075966956,-0.003606278,0.003555298,20.89269056
2332585,1.710133638,-0.363772723,-0.100500001,78.30206633
2332684,0.781371957,-6.706021649,-6.632141113,8.968952108
2332694,0.429644578,-0.127000907,-0.083084106,89.32158216
2332851,5.295900468,-1.97501484,-2.534339905,89.834559
2332864,1.7064518,-0.049583142,0.426167905,27.97367476
2332895,0.303476995,-0.121987915,0.024215698,35.952484
2333039,0.370402174,-5.886495624,-5.743865252,3.063743131
2333116,0.371905571,0.036365941,-0.014709473,89.17576175
2333487,0.273475547,1.777132336,1.747820616,15.50937266
2333589,0.574665193,-0.180978816,-0.034744263,53.53212051
2333778,0,6.303933144,6.303933144,0
2333779,0,1.74657011,1.74657011,0
2333801,0.274927826,-0.04042367,-0.062255859,88.60231586
2333802,0.221703717,-0.074069009,-0.051994324,89.68284998
2333814,0.256870646,-0.075175907,-0.162231445,84.31576626
2333831,2.498542284,-1.326574665,-0.219436646,55.59848857
2333865,1.364731841,1.511040539,1.826775849,6.011136233
2333867,3.768876852,7.597589832,9.168875217,9.004523555
2333926,0.45607254,-0.167253222,-0.082138062,84.99431123
2333945,0.023106838,-0.0020207,-0.001586914,4.262765988
2334170,1.206829425,2.560420377,2.785738707,47.76228449
2334703,0.353757022,-0.088879614,0.003448486,67.28570471
2334942,0.965447748,0.506989913,0.21786499,12.72681634
2335029,0.137865839,-0.158989906,-0.129806519,72.26526885
2335180,0.31803561,-0.232129356,-0.216003418,85.4574585
2335236,0.453517445,-2.402253584,-2.415756226,5.818249369
2335405,0.201603196,-0.005117646,-0.035850525,87.34833508
2336061,0.263070964,0.131619171,0.031982422,41.44209213
2336062,1.973104034,0.638026351,0.775745034,89.30467493
2336103,3.557144235,-0.910993704,-2.246958256,77.67144801
2336157,0.488649035,0.103724715,0.030838013,87.29535381
2336261,4.376571024,-0.224972064,0.084996752,80.07532488
2336462,0.321274299,0.168513269,0.011047363,84.55877443
2336509,0.009120154,-0.012779741,-0.014862061,10.91821963
2337343,0.339150465,-0.053952416,0.021690369,88.82324763
2337851,2.381443169,-0.566872312,-0.469277859,88.73225557
2337975,3.226181576,-3.112811957,-4.664047241,59.49984929
2338146,0.444419509,0.413525718,0.396484375,88.03047455
2338148,0,-1.247379065,-1.247379065,0
2338177,2.349675803,-0.180365061,-0.805050313,46.86305045
2338199,0.024074468,0.008094825,0.005371094,10.83313526
2338234,1.685767865,-1.783611846,-1.252167463,38.19291478
2338249,0.491056458,-0.06320656,-0.274505615,17.63317814
2338252,0.336948562,0.056425975,0.003845215,74.85673612
2338309,2.810141799,2.260312218,1.798100412,54.89593348
2338418,0.248043916,0.191832326,0.198013306,78.10135214
2339215,0.491790348,-0.392844766,-0.208374023,43.03987015
2339310,0.459782473,-5.042342742,-5.109382629,2.294710275
2339648,0.167007366,0.090517358,0.048309326,30.13818007
2340216,2.03901618,0.362440971,-0.03352356,43.43949831
2340576,6.531574598,-2.441412153,-1.961685181,75.70052794
2340608,0,0.492000014,0.492000014,0
2340672,4.818538794,2.018510472,1.405439317,64.17004985
2340678,5.067048143,-4.152742854,-7.179013968,87.04409724
2340904,5.830965429,4.86466478,6.584255695,42.15548391
2341552,0,-0.512000024,-0.512000024,0
2341652,0,6.154342651,6.154342651,0
2342372,0.281989764,-0.008968936,0.065856934,88.99811337
2342414,0.345003511,-0.493419365,-0.693656921,87.7645999
2342510,0.413756073,-0.097257157,-0.189407349,89.86862852
2342551,0.275591834,-0.265520837,-0.189163208,56.44933719
2342630,0,1.981201887,1.981201887,0
2342641,0.198781785,-0.012675454,-0.030426025,89.15965457
2342703,2.82930382,-0.523111243,-0.337592751,71.52510297
2342737,0.280841217,0.393045431,0.406234741,80.21405085
2342850,0.28687092,0.150495865,0.031692505,65.33961973
2342926,5.758868489,-3.493831589,-4.148080945,89.10828329
2343879,0.179589458,0.109371358,0.104431152,44.16690681
2344032,0.287763879,0.029894148,0.109397888,87.86750629
2344165,0.09781885,0.264310201,0.272445679,72.76430916
2344241,0.449200811,0.56424828,0.660499573,78.52298188
2344346,0.310282949,0.363843214,0.433349609,87.54728155
2345004,0.1460972,0.032327265,0.024154663,84.86577375
2345115,0.301104965,0.426107642,0.581878662,52.88514468
2345241,1.740606254,2.113368311,2.360682964,68.64945825
2345863,0,-0.995407104,-0.995407104,0
2346022,0.263998007,-0.227229664,-0.246940613,82.25183955
2346318,0.29032505,-0.556961855,-0.513183594,60.61827999
2346415,0.244355293,-0.21507593,-0.228874207,43.13242821
2346478,0.24571471,0.359463354,0.387634277,79.42312196
2346499,0.230721954,0.019306384,0.024993896,79.35604091
2346531,0,-1.556231141,-1.556231141,0
2346815,0.259189008,-0.124568564,-0.203567505,88.86551459
2346852,0.486610434,0.440831056,0.432296753,86.522457
2346907,4.741316797,1.36023539,0.481249243,77.69653877
2347052,4.759861218,-1.420014473,-0.460897923,89.26955971
2347136,0.266802237,0.184168674,0.024360657,63.41530072
2347272,0.145812217,0.422217244,0.3881073,35.77555849
2347350,0.421664675,-0.362570677,-0.245056152,53.29199703
2347585,0.14877077,-0.924989342,-0.997329712,9.707145194
2348024,0.256449655,0.023593849,0.028656006,85.90979584
2348039,0.138512139,0.293301392,0.330154419,31.82114283
2348046,0.126647326,0.047520971,0.034545898,88.90195217
2348515,0.194123203,-0.097693856,0.006317139,82.0166016
2348629,0.421938274,0.033117078,-0.159118652,69.86489634
2348772,0.655971182,-5.429257584,-5.400286913,1.905187131
2349218,0.333691471,-0.081267754,-0.17376709,86.07066608
2350010,3.49706836,-2.425982752,-0.272947341,89.47225785
2350063,0.174609339,0.024023403,0.043777466,57.87182133
2350187,2.823408176,-3.878942809,-1.647261024,31.32830922
2350243,0.189692586,-0.001653602,-0.016395569,77.95406262
2350280,0.291249943,9.597157657,9.610325813,0.38101731
2350530,0.0254468,-0.051546733,-0.057991028,4.347340427
2350713,0,-4.836435318,-4.836435318,0
2350952,0.250230745,-0.02831858,0.00037384,83.51708593
2351037,0.217858426,0.548079966,0.603164673,45.3393833
2351237,0.309912664,0.319892927,0.374740601,37.40241065
2351377,0.292461906,0.144660592,0.05002594,87.51314879
2351665,0.416522867,0.372385864,0.481544495,76.15122318
2351750,0.035453274,0.667173547,0.670578003,11.95220247
2352062,0,3.466909885,3.466909885,0
2352247,0,10.10961914,10.10961914,0
2352429,0.783139035,0.377756755,0.201522827,73.58447984
2352563,0.376643112,-0.184112842,0.008834839,79.94237293
2352892,0.359656631,0.120088315,0.094818115,66.47517529
2354061,0.401353556,-0.599481997,-0.778991699,87.74866504
2354295,0.192116276,-0.247585509,-0.309173584,54.02645302
2354420,1.329965802,-0.295463414,-0.195785522,45.2776237
2354455,0.168196899,0.142742218,0.142303467,86.21719937
2354555,0.344848911,-0.084647452,-0.017631531,86.51319777
2354856,0.277913321,-0.017465939,-0.00617981,86.65606864
2354939,0,0.048034668,0.048034668,0
2354971,0.37725161,0.427165985,0.60723114,87.54128788
2355067,0.195212291,0.179450724,0.201950073,89.8239295
2355330,0.158791251,0.198265222,0.23600769,75.38547783
2355334,0.124898802,-0.174263848,-0.243591309,13.57736558
2355400,0.495960711,0.359968956,0.234046936,89.24953839
2355511,0.244816766,0.457386951,0.580673218,89.94647195
2355788,0.02777822,-0.063405355,-0.076202393,8.193918515
2355789,0.017153339,-0.702632016,-0.704528809,2.863638916
2355797,0.006302327,-0.094962848,-0.095397949,20.41068777
2355821,0.228201509,-0.026508404,-0.003036499,87.3848823
2355868,0.143380876,-0.129402758,-0.14315033,60.37640175
2355913,1.287817769,-0.854870114,-0.706311047,50.77529257
2355945,0.248147117,0.101863363,0.045333862,87.69480797
2356017,0.209209814,0.206518202,0.191085815,56.70374779
2356030,1.469327486,0.355338554,-0.243018895,39.45945418
2356180,4.008833403,-0.25804852,0.589572161,66.18509196
2356264,0.203348081,0.199734116,0.136550903,88.79981266
2356363,0,-0.258573771,-0.258573771,0
2357073,0,0.509980559,0.509980559,0
2357209,1.71069385,7.984264691,8.46376133,26.49444272
2357245,0.116536739,-0.12512196,-0.158096313,80.6613448
2357936,0,-6.4793396,-6.4793396,0
2357981,0.337543133,-0.137186091,0.029953003,79.01108445
2358061,3.081345466,3.215840463,2.023100376,34.31471906
2358062,0,0.404620081,0.404620081,0
2358175,4.296141796,4.857121654,3.106571555,68.98776665
2358178,0.476336247,0.325645881,0.008880615,88.360325
2358232,0.025906606,0.00282465,-0.004058838,2.219377011
2358233,0.147124909,-0.22891084,-0.131729126,21.07086453
2358578,2.600216709,-1.093914298,-1.595000029,45.7356243
2358719,0.109892709,-0.065947948,-0.040390015,56.71627436
2359626,0.226789906,-0.099361198,-0.062553406,73.11039309
2359979,0.295852935,0.061481052,0.01398468,89.70019733
2360111,0.0304215,-0.09956134,-0.084648132,23.15620928
2360112,0.073829944,-0.014906902,-0.019142151,29.12743696
2360113,0.070295343,0.083053128,0.067550659,20.02299344
2360115,0.016322049,0.035923312,0.026313782,19.27709132
2360119,0.318779398,-0.116932646,-0.104751587,62.6630172
2360190,0.229324474,0.111805496,0.064529419,87.13996456
2360261,1.95478949,-1.315067167,-1.872322917,48.10076709
2360373,0.133637576,0.035336236,0.034103394,63.42131512
2360618,0.308356706,-0.166391347,-0.085647583,88.35127252
2361144,0.090781763,-0.161521912,-0.198951721,14.74974309
2361212,0.232047731,0.046263976,0.020637512,61.58705137
2361274,0.309359914,0.295178637,0.334190369,70.1946749
2362162,0.164095608,0.058130257,0.055740356,88.63728147
2362463,0,0.579396784,0.579396784,0
2362579,0,-0.064645417,-0.064645417,0
2362774,0.369713723,-0.313029896,-0.391998291,0.04323919
2362775,1.213885993,0.214253935,0.445495605,81.97437928
2362776,2.738705624,-7.672257317,-8.357704163,76.3572189
2362784,5.60677077,0.609966502,0.498138428,58.87667232
2362903,0.007343509,0.979797313,0.980331421,0.065692467
2363616,0.093394859,0.07523054,0.072097778,81.24996271
2363826,0.359860829,0.233901917,0.420516968,68.96668232
2363999,0.04360869,0.042454402,0.024085999,3.17223379
2364079,0.095293053,-0.67613856,-0.688392639,7.185003315
2364095,0.125085522,-0.489751642,-0.447372437,13.67165638
2364280,0.381669205,0.247372756,0.145126343,86.05904142
2364398,0.396924448,0.462203057,0.449707031,83.9753929
2364434,4.661660064,7.017882572,9.220352173,49.32791249
2364739,0,0,0,0
2364762,0.013892405,0.009736434,0.006576538,0.146588373
2365089,0.304036413,-0.237300586,-0.206192017,88.88994283
2365401,0.564967363,-0.103814717,-0.469863892,75.88820868
2365504,0.248760396,-0.09758126,-0.100189209,75.47016948
2365505,0.166380307,-0.050385469,-0.07800293,88.7380388
2365834,0.1927354,-0.244678885,-0.230880737,89.93584685
2365906,0.336746859,-0.139026532,-0.021530151,88.95211353
2366115,0.230897718,-0.025630226,-0.096847534,73.39506969
2366133,0.207479089,0.222143125,0.275726318,88.98970186
2366296,0.19882506,0.968348851,0.9480896,6.804254638
2366661,1.561011055,9.884774371,9.847652435,3.10230548
2366770,0.232006845,0.049186292,0.043151855,83.70082727
2366881,0.171457312,0.101875652,0.013000488,73.72878901
2368143,0.275079045,-0.076141861,-0.027503967,87.04894661
2368295,0.241663788,-0.060534188,0.017196655,88.5833208
2368475,0.237168144,-0.190665815,-0.234817505,87.74890266
2368528,0.269206939,-0.102624641,-0.054199219,89.50372892
2368683,0,-9.581888199,-9.581888199,0
2368741,0.344635518,0.113619226,0.181964889,6.691440307
2368821,0.235901595,-0.098276656,-0.134002686,86.32899599
2369034,0.170630572,0.019955241,0.010604858,87.13216463
2369111,0.130442858,0.502323168,0.498886108,38.12733466
2369267,0.328945606,-0.146364987,-0.100357056,88.61368833
2370193,8.304246386,4.654469808,10.52645874,81.42411847
2370375,3.828383162,1.695866571,0.024353027,74.14318584
2370648,0.331710733,-0.022175168,-0.134651184,89.26460963
2370823,0,-1.532289028,-1.532289028,0
2370840,3.107844908,4.898216012,4.517578125,60.0215439
2370887,0,0.828393817,0.828393817,0
2370894,2.116040603,-0.261239905,-0.542648315,58.6812285
2370984,1.430254758,9.569209892,9.598648071,80.2501697
2371212,0.804239094,0.251930946,0.221405029,89.02151885
2371449,0.391622442,-0.098543147,0.028503418,89.16017159
2371646,0.061067595,-0.110281123,-0.120910875,5.039397916
2371786,0,-2.547508478,-2.547508478,0
2372336,0,0.881066203,0.881066203,0
2373140,0.308564123,-0.013336103,-0.037841797,89.31307458
2373147,0.218419139,0.031342119,0.02835083,88.77849827
2373253,1.91271743,4.29969505,3.567469358,22.5924164
2373390,0.229147047,0.198325692,0.112480164,76.34922269
2373467,0.111293958,0.116171649,0.104278564,13.50800916
2373683,0.197846304,-0.871606922,-0.974090576,27.2531005
2373971,3.263639997,6.223518307,7.000859737,42.18038726
2374418,1.668171183,0.409086953,0.726999998,84.23571396
2374500,0.213243493,0.180473028,0.081382751,53.23507931
2374747,2.193986787,-0.345158614,-0.689530075,37.91960582
2374748,0.849546944,-0.97179387,-1.201889277,31.95816667
2374752,2.194846345,0.392068679,-0.076614454,16.65353195
2374764,4.558538366,2.174020625,-0.847547412,50.92503413
2374985,0,0,0,0
2375248,0.138878713,0.268222757,0.288841248,22.4153836
2375435,0.353039739,0.822138148,0.858184814,46.48764997
2375729,0.182609023,-0.001319253,0.01134491,89.84783774
2375757,0.413792645,-0.090137568,-0.028579712,89.81577596
2376219,0.191774765,0.018840259,-0.08757019,31.7686979
2376731,4.411376799,3.726441928,7.096413612,15.5608728
2376826,2.795145933,0.130195037,-0.847547412,22.38960559
2376884,3.068859934,0.450662428,-0.234631762,39.44932922
2376894,0.150704388,-0.06940794,0.009841919,19.52048859
2376908,3.968807024,4.900823074,7.450755596,23.72459338
2376962,0.313594973,7.791987428,7.84340477,3.849369905
2377179,0.211441259,0.184114928,0.230392456,88.15062873
2377951,0.347721204,-0.53742444,-0.635803223,27.84315823
2378010,0.38817901,0.10632677,0.24269104,67.41533242
2378191,0.303297339,-0.080452864,-0.063171387,89.31945633
2378651,0.010071771,-0.54013956,-0.53894043,0.879647038
2378783,0.313845542,0.227002582,0.140670776,77.95369232
2379245,2.026014236,-0.195656587,0.028731298,82.9960965
2379312,0.856532103,0.203360611,0.702125549,46.93963481
2379448,2.953942968,3.812335269,4.285621166,10.19238589
2379870,0.210551891,-0.585142237,-0.423477173,15.24612991
2380352,0.882261186,0.337103605,0.33518824,60.89906216
2380492,0.362371967,0.084337126,0.078514099,87.69442386
2380596,0.206257907,-0.002238266,0.087104797,49.0048929
2380670,0.458564888,0.189614681,0.317550659,87.04162115
2380786,0.486767043,-0.67775024,-0.973297119,26.68589972
2380833,3.335195963,0.21842937,1.53591156,86.93736765
2380874,0,2.177526474,2.177526474,0
2380904,0,-0.197723389,-0.197723389,0
2380911,0.342969851,-0.634939092,-0.725097656,69.52641286
2380938,0.105344772,8.599972725,8.599972725,0
2380948,0.263576035,0.072567137,0.094406128,89.64311381
2380985,0.281202048,-0.199030508,-0.093208313,49.65119893
2381109,4.043634867,1.536950372,-0.440533102,41.77871012
2381206,4.191231626,2.162747284,0.201112941,26.73571632
2381284,1.675702037,-0.633684605,-0.469263524,56.16487008
2382558,0,1.546654344,1.546654344,0
2383064,0.138863564,5.310339451,5.310339451,4.780184041
2383079,0,0,0,0
2383099,3.791500598,0.496665994,0.002394275,80.39895204
2383379,0.028974606,0.052636164,0.058654785,13.55889739
2383390,0,-0.618865967,-0.618865967,0
2383395,0.427632722,0.254902673,0.316034615,4.938660976
2383613,0.160551806,-0.118959327,-0.124420166,89.09243517
2383655,2.007405775,-1.043198561,-1.240196466,37.66478785
2383914,3.110320195,0.258871884,0.40223816,81.19894956
2383982,0.231374501,0.078934203,-0.004486084,71.62000575
2384450,0.028325341,-0.839997688,-0.841384888,4.148471311
2384692,3.65239256,7.713280665,7.59224534,78.67271386
2384881,2.354539431,-0.093066905,0.095768064,87.6587334
2384927,1.817513978,1.303408291,1.341991067,54.53742522
2385177,0.274079319,-0.056146099,-0.159851074,85.72461279
2385337,0.396597476,-0.170619497,-0.019523621,47.709031
2385392,0.039775664,-0.518646646,-0.519607544,12.07800732
2385521,0.281093953,0.143302254,0.097938538,78.30389693
2385679,0.503696178,-0.491223795,-0.702056885,82.63835106
2385843,0.42976684,0.170552654,0.008460999,89.43921063
2385872,2.80122065,1.500670412,2.427720547,88.74113987
2386194,0.331984929,0.073709705,0.016723633,89.75017311
2386444,0.313164355,-0.076264531,-0.02179718,87.89923499
2386722,0.073775298,-0.78012085,-0.77293396,0.938948129
2387021,0.327497466,0.292422787,0.29473877,32.10311131
2387322,6.338020072,0.794074312,0.167599231,79.31581883
2387613,0.325697439,0.065117056,0.04183197,88.20157794
2387987,0.813822672,-0.030999555,-0.081405342,34.4345639
2388010,0.145210468,-0.000593951,-0.01020813,70.34229539
2388217,0,0,0,0
2388477,4.123821369,1.371840734,-0.33518824,67.51410461
2388530,1.53813444,7.625532448,7.163451433,4.910127132
2388668,0,0.814028561,0.814028561,0
2388903,0.251479931,0.108901427,0.019172668,56.99098758
2389082,0.112530708,4.661653042,4.661653042,0.333743771
2389297,0.664894304,0.57829367,0.659347534,79.71816747
2389308,2.724749743,-0.150839329,0.952921391,27.31352115
2389451,0.261276638,-0.14524506,-0.144561768,82.93929799
2389561,0,-6.361588001,-6.361588001,0
2389604,0.421559592,-0.156959947,0.042526245,86.57541234
2389743,3.463765045,4.857617636,4.304774761,23.38610738
2389751,0.28837509,-0.067165896,-0.011672974,87.18572196
2389861,0.211115179,0.021436627,0.004272461,89.29719243
2390137,2.505662925,5.061988071,4.862771988,46.30727714
2390370,0.173943176,-0.007641394,0.015983582,86.04869252
2391446,0.364183802,-0.008218354,-0.04498291,89.78216631
2391957,0.561344719,0.367585198,0.319854736,88.38989729
2392003,2.660231491,-0.914188838,-1.139674783,67.19835725
2392248,2.445320401,0.876572353,0.682368308,88.50153437
2392358,0.135512916,0.144019397,0.148330688,86.04182504
2393081,0,0,0,0
2393099,0,0,0,0
2393421,0.029391968,0.634154708,0.637374878,3.15772289
2393435,0,-0.366312861,-0.366312861,0
2393438,0,1.165976286,1.165976286,0
2393440,1.101250407,1.277173584,0.936132848,13.81480907
2393487,0.176320683,0.182259468,0.17616272,88.13488502
2393580,0.216175956,-0.526862671,-0.533325195,70.07244442
2393590,0.293362104,0.064152068,0.066856384,54.57774803
2393623,1.074818561,1.293230017,1.110943556,32.74866923
2393626,3.226089237,1.537391464,0.755370617,29.54147126
2393630,0,0.075417355,0.075417355,0
2393677,0.362523756,0.05080986,0.044425964,78.71554739
2393745,0,7.723694801,7.723694801,0
2393789,0.261817287,0.266632162,0.225653514,68.55028977
2393811,0,2.081758261,2.081758261,0
2393974,2.079231781,0.184023513,-0.057462595,68.24949466
2394131,0.568384928,0.332463232,0.768981934,35.90809152
2394362,2.318529483,1.576973593,1.924938202,83.64710899
2394432,3.523017922,-1.660310959,-0.672791243,89.21810735
2394961,0.312524146,0.148415031,0.01234436,84.80482907
2395015,0.503405323,0.058745023,-0.012649536,88.87871805
2395873,0,-0.526724398,-0.526724398,0
2395967,5.248861363,1.266939751,0.229850382,89.91381081
2396030,0.06040662,-0.0237069,-0.018890381,41.29948293
2396831,1.69038881,-0.061227946,-0.229850382,27.9707178
2396928,5.467683743,3.116036955,-0.00837996,80.56428434
2397010,0.531562258,0.468446412,0.627410889,85.38462402
2397186,0.18004081,0.765315104,0.738250732,13.77565282
2397443,2.053272582,2.623047647,3.279000044,74.30070371
2397531,0,-4.880000114,-4.880000114,0
2397741,0,0,0,0
2397947,0.243509653,-0.045937744,-0.048858643,89.36768592
2398049,0.243696807,-0.07434664,-0.013191223,87.48090253
2398099,0,-0.829590917,-0.829590917,0
2398136,1.133783079,-0.673492995,-0.587794453,23.04772599
2398259,0,1.213261724,1.213261724,0
2398295,0.185491569,-0.055107404,-0.064956665,87.91909042
2398469,0,-0.124502286,-0.124502286,0
2398491,0,-0.952921391,-0.952921391,0
2399160,0,-0.028610229,-0.028610229,0
2400327,0,1.801636815,1.801636815,0
2400436,3.774567019,1.867521811,0.588991582,45.19289714
2400640,0.021284454,0.491956396,0.493205547,0.378497211
2400722,0,-1.709512234,-1.709512234,0
2400766,3.659240207,2.846812216,0.426180929,80.34046217
2400967,1.741489811,-0.585674042,-0.064645417,26.08472579
2401498,0.637700903,-9.396354965,-9.567522049,4.705477449
2401548,2.161329,0.078752957,-0.402225882,71.71162754
2401756,0.266067169,-0.061939529,-0.082183838,84.58713934
2401985,0,7.211335659,7.211335659,0
2402015,0.201619637,-0.124900944,-0.126609802,87.00399686
2402226,2.263034082,-1.330543706,-1.297657371,50.19421573
2402251,4.039492766,2.097402887,0.363918662,53.44050827
2402293,6.287834679,0.149816463,0.952892274,58.90624259
2402413,0.334043852,0.095590172,0.001968384,87.36888249
2402683,0,-2.467224836,-2.467224836,0
2403027,0.320640278,-0.130527866,-0.091644287,88.49936088
2403058,0.283654902,-0.108436479,-0.081268311,88.11707078
2403245,0.295596428,0.01631837,-0.051864624,89.92892412
2403375,0.174041335,0.052015937,0.078414917,87.31183998
2403558,0.161281949,-0.082678925,-0.100166321,89.50043827
2404230,0.371944207,-0.456831146,-0.712844849,60.45655394
2404457,0.212813016,-0.739649308,-0.741592407,41.25580552
2404474,0.087655439,-0.104091644,-0.093177795,10.42981993
2404498,0.236486885,0.050864699,0.088523865,87.9560404
2404569,6.091815196,5.821283801,8.497022152,64.73600185
2404922,0,2.631308079,2.631308079,0
2405169,0.366598633,0.642501124,0.67037648,84.31994435
2405240,0.322654629,0.179412915,0.01473999,80.77390079
2405436,4.32645452,-1.474873185,-1.474873185,0
2406482,0,8.251616478,8.251616478,0
2406789,0.26563611,-0.380814749,-0.490631104,35.91927333
2407638,0.256913048,-0.037445557,-0.111076355,88.70786719
2407975,0.217540024,-0.015800712,-0.029380798,88.8252674
2408062,0,0,0,0
2408196,0.348230862,-0.083870479,-0.155143738,87.68148759
2408424,0.872142509,0.166895035,0.023942748,13.73476828
2408583,0,0.031125572,0.031125572,0
2408619,0,0,0,0
2408644,0.160693082,0.16215213,0.150588989,24.69166083
2408741,0.753595278,-0.047635413,-0.555770874,72.46284487
2408922,0.207527708,-0.044115325,-0.018928528,80.27261234
2409000,0.579157128,-0.040169349,0.00692749,74.00060083
2409045,0.317841316,-0.118933797,-0.005477905,32.39767601
2409069,0,3.627215624,3.627215624,0
2409229,0.265084465,-0.125682512,-0.101150513,87.39330461
2409381,0.095128578,-0.191854858,-0.231170654,10.49433602
2409502,0.339268725,0.130163352,0.126548767,89.54846237
2409553,0.206593069,-0.059422638,-0.057113647,86.43750245
2409587,0,-0.232244655,-0.232244655,0
2410065,0.368399578,-0.166575697,-0.127487183,68.51714283
2410066,0.1161246,-0.14933117,-0.152084351,49.42450002
2410302,0.312922422,-0.005133996,0.093643188,45.37977918
2410468,0.220903467,0.862402804,0.961212158,52.15517471
2410625,0.17648429,0.019735892,0.078224182,74.58554661
2410691,0.265197648,0.966185782,0.952827454,22.444587
2410737,0,0,0,0
2410936,0.112710094,-0.063704243,-0.03238678,52.93795612
2410938,0.284179496,0.099997761,0.096923828,51.92691516
2410953,0,0,0,0
2411237,0.24681232,0.155367254,0.125320435,89.38982774
2411321,0.137983446,0.126029531,0.098266602,88.95231377
2411365,3.53859366,-2.053689208,-2.637293696,83.10236296
2411692,0.512106659,-0.516424555,-0.813995361,88.52050887
2412209,0.154818508,0.102229943,0.010887146,82.26475971
2412538,0.281348987,-0.32484053,-0.270385742,84.84643453
2412608,0.209341359,0.002167922,0.105392456,46.77497087
2412825,1.326114806,2.792969303,3.00951159,20.37014346
2412876,0.024427965,-0.092078988,-0.091690063,34.12541363
2413307,0.171944265,0.880112651,0.845184326,20.6940928
2413370,0.018570045,0.248153687,0.259017944,0
2414106,0.279760788,-0.02405523,0.001922607,87.71242127
2414282,0.320478721,-0.138357168,-0.169692993,89.97086896
2414346,0.39764028,-0.555796587,-0.763931274,75.71145711
2414571,3.439739544,-0.372729237,0.045491222,89.17110386
2414621,0.091532483,0.119189516,0.145828247,66.56959155
2414894,0.214834546,-0.100246147,-0.08366394,88.86408951
2414918,0.049164715,0.01984735,0.04510498,52.44612758
2414983,0.086111422,0.853737267,0.861938953,2.107982987
2415237,0.259882107,-0.039175827,-0.053314209,89.75179592
2415238,0.240051418,-0.100231631,-0.087768555,89.47949011
2415239,0.075102786,0.755628922,0.767593384,9.902322096
2415753,0,-0.773350775,-0.773350775,0
2416261,0,0.478854954,0.478854954,0
2416325,0,-0.770956516,-0.770956516,0
2416355,1.312485758,0.285792073,-0.090979666,42.10344936
2417662,2.935846007,2.946946494,1.588601291,24.4992188
2417878,1.541888513,-0.225787871,-0.280121595,41.40373127
2418417,1.156579042,1.360905771,1.430579185,27.16365943
2420152,0,-0.732648075,-0.732648075,0
2420250,0.198884364,-0.066284579,-0.070358276,86.06418571
2421046,0.220687629,0.026587264,0.03692627,89.45558781
2421907,0,-0.543500364,-0.543500364,0
2422020,0.343283426,-0.010624532,0.01108551,89.2489269
2422146,0,1.212663174,1.212663174,0
2422901,0.389976393,-0.00114906,0.047073364,87.95682807
2423798,1.137699203,-0.303457642,0.307540894,53.98859287
2424026,0.243778985,-0.900367053,-0.980041504,20.37833442
2424195,0.57853037,0.120089363,-0.023834229,89.43490908
2424281,0.473292971,-0.59521052,-0.830406189,64.38872323
2424299,3.247462609,-1.585474579,-2.114080191,58.65552536
2424453,0.327655841,-0.682263856,-0.762664795,57.05070046
2424697,0,2.662433624,2.662433624,0
2424839,0.320979776,-0.214580865,-0.213096619,88.59023771
2425423,0.041417934,-0.085503714,-0.080413818,5.292503483
2425502,0.147976513,0.947690558,0.928520203,7.493056272
2425607,1.453762863,8.049209867,7.776604652,1.27122461
2425718,5.686313527,0.685672283,0.314720154,85.63237786
2426440,0.175494832,-0.008016111,-0.047821045,85.85411086
2426508,0.827546529,-0.02703213,0.153233588,64.20953059
2426640,1.601425427,-0.975548584,-0.782927871,21.40634249
2426695,0.249422527,-0.078206791,-0.053451538,87.9251515
2427244,0.415199581,0.032513105,-0.115844727,87.8391616
2427840,0.125027044,-0.964172595,-0.96987915,8.941823029
2427983,1.632532945,1.592335813,1.188606262,46.66648786
2428108,0,0,0,0
2428118,0.394678032,0.230425342,0.075927734,69.58431005
2428572,0.419426833,-0.249926135,0.023162842,69.79047807
2428705,4.11192791,-5.230185672,-8.747216225,29.4851604
2428809,5.851008889,-0.948103851,-1.823783159,71.29692008
2428853,0.318408321,-0.413265101,-0.509140015,73.23411462
2428932,0.497766072,-0.293834491,-0.056610107,89.12445699
2429005,0,0.986441195,0.986441195,0
2429028,0,-9.347249031,-9.347249031,0
2429257,0.415707515,0.39923206,0.327003479,86.81682084
2429574,0.358285753,-0.075147603,0.049865723,65.05813924
2429709,0.400036721,0.160990021,0.009017944,89.35934906
2430307,0,-1.368999958,-1.368999958,0
2430775,2.393060103,1.127956304,1.326387763,21.70688165
2431705,0.305905809,0.146851895,0.03553772,80.31246008
2432703,0,-0.249004573,-0.249004573,0
2432730,0,-5.370358467,-5.370358467,0
2433383,0.476635768,0.209217942,0.123962402,85.45609744
2433414,4.805354687,1.222158354,1.149216831,56.76867659
2433415,3.177822022,2.109254292,0.33279404,45.42850394
2433831,0.319634776,-0.24185739,-0.205688477,82.52742493
2433849,1.189434626,-0.678178325,-0.948132813,25.92557966
2433876,0,0.328015655,0.328015655,0
2434006,3.900919997,1.98194647,1.426987767,60.05195195
2434077,0.179313102,-0.097611876,-0.086395264,89.95520984
2435606,2.584485529,-1.692987074,-2.057816267,51.93346564
2435692,0.221720693,0.040177055,0.053100586,69.74846855
2435943,0,0.007182824,0.007182824,0
2436025,0,2.660039425,2.660039425,0
2436295,0.231057458,-0.016984304,0.023765564,79.49866797
2436679,0.282666877,0.235071633,0.063415527,89.37735429
2437718,0.299359179,-0.46931322,-0.453941345,41.9973014
2437844,0.303080169,-0.065668688,-0.02835083,88.43870696
2437870,3.175859008,-2.977196172,-5.072479248,60.83615975
2438347,0.094072872,0.034186531,0.023468018,29.71045013
2438498,0.32560661,0.317828377,0.294242859,87.03568218
2438589,0.100662699,-0.614281135,-0.654834181,3.74324783
2438806,0,-0.284918696,-0.284918696,0
2438881,0.220977333,-0.024144575,0.007644653,89.42786439
2438954,0.329799367,-0.136225226,-0.182144165,85.74115006
2438958,0.297082237,0.138805022,-0.002410889,87.46266853
2439379,0.240342776,-0.131839389,-0.114089966,89.41286478
2439384,0.106204869,-0.685264139,-0.705307007,7.165069932
2439611,1.252600517,-0.264467603,-0.217879012,78.85449668
2440276,0.170127406,-0.08448892,-0.075912476,65.89862217
2440390,0.23657747,0.01335425,-0.033119202,89.15154023
2440609,0,-0.732025146,-0.732025146,0
2441831,0.100272442,0.779078034,0.77746582,3.249051626
2442053,0.247217625,-0.044481644,-0.00403595,38.72041244
2442456,0,-1.86514008,-1.86514008,0
2442470,0,-0.320832819,-0.320832819,0
2443313,0.112904807,-0.032321015,0.01071167,88.04140353
2443620,2.457083251,-1.110635982,-1.197137356,79.79310875
2443636,0.221381633,-0.056164828,0.057388306,23.82093358
2443981,0.268685602,-0.344749821,-0.452285767,25.89871686
2444034,0.074030957,-0.337903341,-0.33228302,0.822099637
2444851,0.209661653,0.369695028,0.355239868,5.874821619
2445293,0.382728301,-0.032828178,-0.232727051,83.45881978
2446416,4.726936911,-5.136495056,-8.029296875,86.48700562
2446535,0,-2.748627424,-2.748627424,0
2446570,0,0.864306808,0.864306808,0
2446668,0.292377007,-0.038997027,0.000526428,75.66587655
2446957,3.019752584,-3.650905396,-4.297723293,78.57088642
2447019,0.168120917,-0.093359876,-0.107833862,88.31852114
2447152,0.205620446,0.08764639,0.111557007,89.34900978
2447376,0,0.373506874,0.373506874,0
2447403,0.445885293,0.4945152,0.535522461,83.6311659
2447726,4.035716879,1.499648821,0.718282461,37.92098259
2447781,0.414351765,-0.281488444,-0.281112671,80.67796267
2448305,0.20176623,0.008515015,0.021125793,89.79445558
2448353,0.374373032,-0.813305062,-0.897453308,87.69225012
2448745,0.400956094,0.2490718,0.185089111,89.02359588
2449525,0.444359912,0.045076643,-0.105171204,87.06888827
2449612,1.901344863,-2.357652735,-2.717819214,40.69196294
2450253,0.155188427,-0.048872446,-0.050918579,87.31729401
2450622,0.921653532,-0.3619989,-0.045491222,22.20705392
2450709,0.372814463,0.011238611,0.145980835,87.94023899
2450758,0,2.060210466,2.060210466,0
2450908,0,-2.308080912,-2.308080912,0
2450912,0,-0.363929778,-0.363929778,0
2450983,0.469270221,0.441843463,0.320832819,13.77163487
2451114,0.409013899,-0.326291696,-0.108535767,40.92159379
2451433,0.179915227,-0.166970515,-0.163116455,77.40025654
2451570,0.282340773,-0.126723226,-0.118560791,85.34884554
2451788,1.200177537,-0.772894965,-0.447021484,24.37237565
2452062,5.059516789,3.728744745,6.080596924,42.41809841
2452450,0.307746076,-0.017108303,0.046813965,89.40902056
2452565,2.199414342,-6.548208335,-6.103668213,42.84689432
2452764,0.384620208,-0.074825343,-0.00063324,83.51577151
2452906,0.454782025,0.03076151,0.006095886,89.21265918
2453284,4.010039188,0.594143574,-0.931372911,68.80971861
2453565,0.237314917,-0.079764496,-0.002670288,84.62365275
2453566,0.248147546,-0.132457862,-0.050590515,70.25562824
2453578,0.470841798,0.174779427,0.017654419,77.54549648
2454320,3.009995934,0.624027402,0.624954224,85.90167385
2454418,0.469405596,0.259130263,0.066444397,87.21791736
2454766,0.25891878,-0.330958819,-0.265518188,88.61466382
2455108,4.360385225,3.943609366,5.820304394,27.89472602
2455233,3.653773384,-0.992695881,-0.868496686,67.59764172
2455254,5.337623612,4.51233741,8.618192196,59.34466757
2455289,0.899427034,-1.122515855,-1.049889505,33.12982545
2455385,0.292972686,-0.011978535,0.006744385,83.58348071
2455445,0.49128308,-0.098885051,-0.048240662,80.5717226
2455589,0.296127194,0.037012339,-0.016593933,65.91833008
2455981,0,-1.096577883,-1.096577883,0
2456735,4.964901182,-5.174777461,-8.388809204,78.07104884
2457451,2.68272899,5.534886181,6.543552876,30.37515769
2457455,1.512287396,-2.98618118,-2.910241008,33.60099123
2457459,3.283626645,-2.014693563,-2.024359345,73.79480436
2457460,0,-2.600182533,-2.600182533,0
2457462,1.242550417,-1.170321521,-0.990032643,73.15982509
2457596,3.103687604,1.387639433,1.670554221,22.97109573
2457726,3.412216612,1.01217337,-0.038308397,52.20234343
2457735,3.605348587,-1.145489464,-1.88788569,79.88997986
2458178,0.333585558,0.080199573,0.07321167,89.24422022
2458614,0.326530938,-0.392606513,-0.418319702,11.98033409
2458615,2.976456795,-3.011580315,-3.414123535,89.78892324
2459070,0,1.302445769,1.302445769,0
2459073,0.673415646,1.685517982,1.89620769,17.61627524
2459075,0,3.715801001,3.715801001,0
2459260,0.211477544,-0.102220123,-0.141517639,86.24449501
2459424,0.013111263,-0.008022954,-0.007182605,0.267934084
2460132,1.437934013,2.149993126,1.78368032,10.809909
2460346,0.258774204,-0.09183197,-0.057136536,86.29987953
2460530,0.414611284,-0.2603636,-0.106643677,58.95899574
2460547,0.10972941,-0.256836414,-0.215141296,8.560652756
2461018,0.207942115,0.100318266,0.057388306,88.80314029
2461307,0.384783463,-0.174200672,-0.108001709,86.35774559
2461675,0.116761328,0.972225806,0.978805542,34.50151828
2461749,0.49964563,-0.64884847,-0.579414487,6.734056343
2461872,0.360048206,-0.217435098,-0.04536438,43.43844985
2461883,0.174888965,0.568439954,0.595474243,50.29831424
2462286,0.24460105,-0.122671073,-0.125045776,88.33035277
2462386,0.233930189,0.173605889,0.197769165,81.21649445
2462602,0,0.773350775,0.773350775,0
2462925,1.150471784,-0.675513855,-0.569837391,54.80015305
2463676,0.451075614,0.417321565,0.344284058,89.90909963
2464336,0.542850374,0.270905604,0.048294067,87.22608344
2638762,0.162779553,-0.644201298,-0.560112,16.08210303
2639332,0.370578361,-0.15777427,-0.192932129,89.75772808
2640321,0.468386225,-0.170897083,-0.019920349,52.54035706
2640342,0.232473927,-0.140941282,-0.063217163,49.93177717
2640343,0.398015544,0.311997417,0.137107849,74.35533407
2640671,0.482386977,0.334694965,0.505653381,89.40825262
2640674,0.242232569,-0.018380592,0.005645752,89.24500407
2640675,0.017619495,0.069915771,0.082305908,10.77056131
2640887,4.66757152,0.930167935,0.016759925,84.2340717
2641198,5.378195799,0.927522163,3.11964488,71.13560647
2641218,3.025160072,2.311650283,2.021903276,55.30035588
2641428,0,0.526740432,0.526740432,0
2641430,2.179884275,1.39454979,1.209108829,86.76249457
2641438,1.050274161,-0.337773711,-0.330409914,33.74532026
2641439,0,-0.387872517,-0.387872517,0
2641441,0,3.067065954,3.067065954,0
2641442,2.259568518,-0.785136532,-0.299284339,76.74782902
2641444,4.268673581,4.031844749,4.778972387,36.09164822
2641445,4.233848843,0.948108627,-0.179570615,77.75235997
2641446,2.808811337,-0.210622517,-0.584203064,53.40465236
2642142,4.032744032,-3.124257162,-1.997961402,64.38826787
2643444,0.255307906,-0.041586982,-0.049026489,88.96947974
2644129,1.646338963,-0.279699085,-1.120486379,83.90507298
2644774,0.151977643,0.000536146,0.043823242,86.37991209
2645092,0.022137625,0.330986319,0.329498291,7.855800079
2645508,0.290264208,-0.782472815,-0.898513794,15.54420451
2645591,0,0.828419089,0.828419089,0
2645635,0.567609052,-0.254816807,-0.052856445,89.64145666
2645982,0.222574434,-0.062155728,-0.140869141,88.49124417
2646372,0.275375206,-0.17286939,-0.145507813,88.00014408
2646571,0.183116822,0.200339181,0.185188293,33.31203069
2646583,2.139790051,-0.057449296,-0.051476909,83.06527083
2646894,0.649335649,0.47609692,0.845321655,89.59082607
2646897,0.28113458,0.045445689,0.045471191,34.74193897
2646899,0,0.301055908,0.301055908,0
2646905,0.219587089,0.077325039,0.061401367,80.66972515
2646976,0.612100542,-0.447806925,-0.483375549,88.98380481
2648860,0,-0.315429688,-0.315429688,0
2648861,5.384382514,-4.13640205,-5.900268555,77.71847208
2648864,2.201809113,1.385479018,2.857452393,47.56073552
2648867,0.654463398,-0.654476663,-0.557098389,18.92716254
2648868,2.980068675,-4.774759789,-5.170455933,82.76275511
2649461,0.336656199,-0.814731114,-0.907028198,39.40620925
2650081,0.177782038,-0.895160288,-0.911956787,27.60673669
2650284,0.176504617,-0.031301926,0.017196655,87.65108156
2650435,0.3247166,0.06138302,0.165557861,87.80771741
2650524,0.260634709,-0.138154957,-0.218292236,88.42940322
2650655,0.280413575,0.442959219,0.383956909,79.46629142
2650794,0,0.244208574,0.244208574,0
2650795,0,-0.746990919,-0.746990919,0
2650899,0,0.651062012,0.651062012,0
2651101,2.705289138,-1.636229349,-1.549048543,73.0167988
2651112,2.212990405,0.346848233,-0.158022135,46.01046588
2651253,0.285268858,-0.001521417,0.050559998,88.25910088
2651254,0.239969541,0.010502001,0.003234863,79.13128956
2651261,0.253465082,0.150082579,0.128570557,86.12111402
2651504,0,-0.696733952,-0.696733952,0
2651569,0.17622076,-0.009282068,0.012512207,89.36801427
2651587,0.27332704,-0.065466049,-0.014343262,88.70707633
2652437,0.20199789,-0.173178148,-0.084106445,31.84198337
2652658,0.434699516,-0.118786274,0.100326538,87.48532337
2652783,0.213941157,0.172481238,0.117706299,82.94946663
2652876,0.263774655,0.576785446,0.631393433,43.48864786
2652903,0.134295698,0.00848796,0.017333984,87.35090594
2653233,0.415806093,-0.197582862,-0.142745972,89.08568728
2653580,0.339161107,0.206957343,0.186515808,89.35006429
2653653,0.185071597,0.868507746,0.95349884,18.68132144
2653930,0,0.70930481,0.70930481,0
2653984,1.184776181,-0.880513714,-1.288080573,11.9281305
2653998,0.449480004,-0.545877997,-0.598550439,7.114548857
2654123,3.573813421,0.781385397,2.525959849,84.47784482
2654652,2.966196415,-2.190231516,-1.138557434,87.46239876
2654794,0,0.577102661,0.577102661,0
2654921,0.056228638,4.351776123,4.351776123,0
2655588,0.391491022,-0.277439318,-0.166763306,51.72778171
2655920,0.583460727,-0.095036962,-0.15284729,68.75274332
2655967,2.829599641,-0.288634282,-1.064222693,41.12955228
2655973,0.616088313,0.439947993,0.344775572,17.51656283
2656033,0.458589959,-0.195311329,-0.03163147,88.58064758
2656184,0.547268698,-0.438644343,-0.80065918,65.39644668
2656280,0.178140744,0.058238503,-0.046974182,58.37461212
2656290,0.048639077,0.037848192,0.044143677,20.28683195
2657363,3.23177198,1.393377171,2.003946781,49.56016752
2657403,0,0,0,0
2657989,0.072649709,0.020999411,0.012329102,0.295250032
2657998,0.219204215,-0.367437007,-0.290298462,62.1595062
2659115,0.138947674,0.065669277,0.012557983,31.13675919
2659671,2.649559524,-8.340557323,-8.017913818,20.39153601
2659678,2.752510264,-7.130069551,-6.594192505,2.599572363
2659683,1.411439973,-1.499871826,-0.686309814,15.9260955
2659754,0.028213455,-0.683755057,-0.677383423,4.603272945
2660196,0.317849679,-0.048931814,0.009689331,80.03539056
2660345,2.580601598,-6.855893736,-6.668365479,4.428367918
2660425,1.215848685,-0.909053621,-0.375889659,14.48944003
2660534,4.455642126,2.851187494,1.18756032,72.2811202
2660702,0.010398462,-0.046459433,-0.045898438,2.314896946
2660954,0.255366474,0.137824425,0.02911377,86.04486291
2661715,1.23779705,-0.424899901,-0.48843205,41.14484852
2661890,2.86764957,-0.793488564,-0.320832819,36.1450361
2662730,1.540796497,-0.486980623,-0.875080705,21.56305319
2662933,4.500086364,4.414193547,5.422268152,55.50132199
2662935,0,-2.964112282,-2.964112282,0
2663070,0.224754716,0.01118588,-0.016517639,82.60080585
2663094,0.502736485,0.554156724,0.84526062,69.13618999
2663191,2.890646842,-3.971303738,-5.207547665,1.51410129
2663211,0.424645048,0.550696613,0.675552368,32.76404627
2663554,0,-0.086191259,-0.086191259,0
2663594,0.37954261,-0.228365889,-0.079879761,67.85661819
2663939,0.451291203,0.212503536,0.119710088,28.91042612
2664318,0.332788627,0.235201718,0.278762817,59.73375032
2664427,0.031155214,-0.101470518,-0.094520569,29.37517966
2664772,0.33593525,0.812969072,0.837051392,79.82314456
2664873,1.534468682,6.032632315,6.513687134,37.94610578
2664979,4.079372994,-4.074625011,-1.455499947,34.43289002
2665113,0,0.608795166,0.608795166,0
2665156,0.398868663,-0.554891448,-0.634463429,88.74811835
2665221,0,1.911770105,1.911770105,0
2665343,3.886010338,1.688580435,0.453715071,50.52515029
2665589,0.436384814,-0.314558162,0.009040833,50.65941073
2665765,0.395087312,-0.047711562,-0.014450073,86.87133025
2665861,0.112671044,0.013705838,0.036514282,28.10516122
2666056,0.23021076,0.13342754,0.011749268,70.56428873
2666293,0.335137953,0.046968648,0.022918701,80.83129459
2666571,0.556882428,-0.258019249,-0.221298218,86.63866542
2666611,0.680222037,0.500925887,0.818717957,70.18061382
2666981,0.443360207,-0.12469768,0.022598267,50.43518776
2667357,0.361168422,0.120328804,0.011291504,82.4909888
2667697,1.411379963,-1.497641482,-1.455719113,42.25847412
2668464,3.779063632,5.088189852,5.848016262,57.82671271
2668490,0.038106681,0.034706014,0.040222168,10.80784851
2668901,0.282383567,0.161062351,0.070648193,84.09264153
2669933,0.432613463,0.385430826,0.602561951,71.55451155
2670219,0.013706849,-0.777639425,-0.776229858,2.140317039
2670267,2.973908088,-1.655779636,-0.668002665,79.69628957
2670800,0,0.634482801,0.634482801,0
2672143,0.357440807,-0.744634386,-0.939933777,60.63314862
2672219,0.448155202,-0.375286149,-0.088562012,54.46895632
2672339,0.940675974,0.971477003,1.0175668,40.64689723
2673693,2.094131572,-0.993846516,0.143652096,84.41497619
2674140,0.232081841,0.105448567,0.049247742,85.18449474
2674179,0.072303199,0.942256709,0.954879761,3.550608993
2674375,0.25316881,-0.062213793,-0.008377075,83.53589968
2675034,0.218931731,-0.061510265,-0.070022583,88.22357027
2675295,0.736095048,9.324573769,9.355628967,1.462237144
2675402,5.918188206,2.231482399,0.043096945,62.98626446
2675622,0.396020113,-0.316484055,-0.155975342,87.99226047
2676037,5.036739991,1.461347073,0.646434456,70.91051333
2676369,0.289116216,-0.142733441,-0.08821106,87.55145929
2677098,1.789714188,0.691740126,0.986411095,83.1579841
2677485,0.289903827,0.179684673,0.15927124,88.20262193
2677737,0.214523634,-0.036695202,-0.038131714,87.96286562
2678040,0.439549906,0.139856327,0.426528931,35.80292089
2678130,0.688133852,0.401412562,0.039611816,88.65197783
2678264,0.563301552,0.278815481,0.0052948,89.97390511
2678455,0.239304351,-0.516115531,-0.547332764,23.40253035
2678803,1.181818067,0.034021876,-0.049082635,37.61091347
2678823,0.243608745,-0.044710392,-0.079193115,70.7271872
2679076,0.239965004,0.042095184,0.010787964,89.49000039
2679534,0.380194076,0.145077564,0.111618042,85.03590439
2679937,0.190168997,0.193802033,0.179534912,49.86239697
2680933,2.603830231,-0.039713752,0.107742369,68.08781163
2681708,0.36631738,0.866292146,0.837996185,2.641177501
2682607,0.490315171,-0.12524472,-0.255722046,77.03864869
2682827,0.386677361,-0.109029015,-0.006027222,85.0458363
2682960,0.36533422,-0.08267331,-0.181472778,88.68803434
2683445,0.245715351,-0.275748975,-0.24760437,28.70369687
2683587,0.206101629,0.166400031,0.084976196,32.02970982
2683705,0,-2.152387381,-2.152387381,0
2685092,0.50554935,-0.525079137,-0.606987,68.77961783
2685093,0.118398942,-0.327261353,-0.271621704,5.905694658
2685180,1.753836659,-2.534571586,-2.084216237,32.3064438
2685837,0.566206561,0.157576802,0.431686401,87.08790286
2686076,0.118837504,-0.905197763,-0.908035278,14.09274561
2687026,0.28690659,0.033403209,0.013336182,71.04741188
2687255,1.931306142,-0.583976567,-0.169993512,48.3992361
2687550,0.063408952,-0.15881662,-0.170639038,50.41340836
2687557,0.227560757,0.063938405,0.012565613,84.66209479
2687571,0.077348398,0.030704964,0.026748657,33.48147615
2687771,0.484035268,-0.463702115,-0.262809753,70.03919479
2687883,0.258262897,0.175407259,0.178939819,89.31538719
2688423,0.256339401,-0.049272083,0.001083374,29.37185284
2689463,0.57312713,0.167399715,0.093376716,10.92551199
2689567,0.111066901,0.125695204,0.142204285,33.44365959
2689568,0.431831049,0.229775419,0.011047363,67.6273663
2689569,0.326748489,0.242310854,0.273590088,86.06734453
2689570,0.343434921,-0.842715146,-0.933776855,80.34288794
2689631,0,6.460388184,6.460388184,0
2689690,0.470262443,-0.166382845,0.00239563,84.47642824
2689693,0.490055359,-0.152956242,0.002380371,87.35273461
2691001,0.283168429,-0.03025699,-0.052688599,87.56990169
2691127,1.18013147,-0.106654057,-0.31843856,8.715768044
2691258,0.370403894,-0.070333239,-0.104721069,74.57778098
2691730,0.345104554,0.186221364,0.031906128,53.12280218
2692108,0.330237765,0.115954005,-0.0128479,72.51080329
2692566,0.29369231,-0.395292581,-0.176292419,24.64947607
2693982,0.196625197,-0.139679042,-0.122848511,89.73451486
2694530,0.36295206,0.072324676,0.056442261,73.5917348
2695142,0.514964994,0.156913935,0.136260986,88.45147968
2695281,0.244364858,0.064002694,0.001312256,82.26187194
2696085,0.404919393,0.270641538,0.303260803,81.4152768
2696103,0.210201934,-0.214384283,-0.234832764,83.28319461
2696297,1.590996734,0.608784287,0.334001333,39.02351134
2696722,0.2897346,0.018232073,0.010299683,27.04910173
2696726,0.319172771,0.44670105,0.613922119,0
2696852,0.398959435,-0.207890589,0.006546021,44.8568684
2697774,0,3.944999933,3.944999933,0
2697775,4.531954974,3.71452084,2.010999978,89.81163197
2698055,0,-2.220999956,-2.220999956,0
2698437,0.89194445,3.176404556,3.392687321,5.405889191
2700214,0.308458521,0.257903969,0.189193726,89.998588
2700832,0.185093294,-0.141875748,-0.171508789,88.98201769
2701358,3.534642659,3.710493507,4.072661638,78.99489673
2703338,0.256261651,-0.106998523,-0.116821289,89.58443334
2703721,2.210882526,-0.731075736,-0.329212785,86.65200712
2704039,0.042620527,0.050175985,0.046340942,0
2705223,0.482430023,0.365122946,0.215171814,57.17683514
2705226,0.466641914,0.190776943,-0.118408203,48.7325002
2705233,0.498603983,-0.296564982,-0.053817749,76.51408563
2705428,0.163025055,0.17552021,0.184310913,75.1480778
2705624,0.134654224,-0.094206238,-0.124961853,22.95649102
2705626,0.189801772,-0.115924704,-0.134658813,29.03580354
2705903,4.567140822,3.392919576,0.483643502,76.13760752
2706596,0.615599563,1.472700059,1.532289028,4.540444093
2707763,0.405406927,0.062449919,-0.056518555,87.87635757
2708026,6.006872889,-0.256354452,-0.183162022,63.73848692
2709065,0,2.030282974,2.030282974,0
2709133,0,0.076614454,0.076614454,0
2709762,0.349102663,-0.065117839,0.042861938,89.6482767
2710104,4.63939197,1.443410488,0.282524437,52.15704992
2710265,0.449495883,-0.443697015,-0.521911621,75.91441162
2710478,0.181754906,-0.0160724,-0.038604736,89.78626472
2710503,0.358988504,-0.547360601,-0.689483643,15.01965605
2713937,0.297320688,0.06062524,0.168762207,73.19585948
2713961,0.324071751,-0.027410413,-0.00843811,48.00994244
2713969,0.395681391,-0.371883329,-0.291786194,88.84499254
2714271,0.451554278,-0.373499599,-0.515632629,47.46724298
2714275,0.466156828,-0.352405532,-0.611968994,87.42028221
2714301,0.43086093,-0.105217943,0.062736511,87.35100395
2714500,0.452730885,-0.26787551,-0.264068604,88.93536021
2714502,0.397110183,-0.256490736,-0.239852905,88.30740304
2714555,0.343944378,0.252616584,0.197341919,49.06562268
2714589,0.02847869,0.013647079,0.012657166,18.14099233
2714656,0.231027208,-0.583907817,-0.63168335,35.83952596
2714717,0.336369107,0.103608195,0.375236511,59.1981464
2714931,0.384598033,-0.111574366,-0.066390991,89.26180669
2714984,0.097386377,0.012935184,-0.00428772,41.59168185
2715112,0.281730614,0.169607179,0.032730103,40.51436277
2715208,0.327521374,0.786016756,0.8800354,30.33868888
2715278,2.557455022,1.515549353,2.202732801,78.77031569
2715412,0.253119915,0.071617324,0.078720093,75.97083387
2716041,0.39932341,0.225453208,0.156318665,46.92312892
2716042,0.440814381,0.055393566,0.036392212,61.06496372
2716337,0.160007425,0.162454785,0.221878052,44.87021745
2716351,1.939549556,0.664626122,0.307664305,52.04948992
2716356,0,-0.727837324,-0.727837324,0
2716525,2.73028262,3.634379754,2.818061352,89.37364525
2718259,0.231576446,0.054772534,0.032241821,87.19777611
2718411,0.226518705,0.206567779,0.257675171,56.19021416
2718449,0.319474256,-0.165539096,-0.131591797,87.62259974
2718451,0.290580372,-0.231478614,-0.123382568,38.60770905
2718653,0.57776892,0.108114704,-0.078384399,89.43369496
2718698,0.264444448,-0.011139294,0.078140259,86.50563875
2718745,3.379328341,-0.606582894,0.348366976,66.56558436
2718875,0.177936704,-0.004333852,0.010696411,88.00384554
2719463,0.519704972,-0.536991745,-0.731048584,75.91735538
2719485,4.402988551,1.21020732,0.493220598,61.2608074
2719672,0,-1.43599999,-1.43599999,0
2719888,1.858834099,8.820875019,8.829500198,18.73472684
2719912,0,-2.470816135,-2.470816135,0
2719972,0.204324261,-0.057850293,-0.069854736,42.75261332
2719975,0.252270171,-0.010454255,-0.05165863,48.64484741
2720008,0.253931047,-0.097802532,0.000694275,87.40300271
2721210,0.540836343,-0.275002862,-0.070205688,89.14943559
2722251,0.086201344,-0.065665468,-0.062820435,6.638205424
2722897,0,0,0,0
2723051,0.204335756,-0.138051312,-0.154716492,89.20894962
2723083,5.186050434,3.901340674,0.967287034,47.08298378
2723110,0.392030708,-0.012644106,-0.096931458,88.76238971
2723364,0.518318432,-0.15088153,-0.003623962,44.7835293
2723546,0.959060406,2.555489302,3.069460392,11.45561319
2723566,2.790125135,2.066686684,0.842784733,65.02836693
2723735,1.156086757,-0.357626483,-0.146050766,37.7800375
2723921,0.24036424,0.148287405,0.134963989,87.41749407
2724279,0,0,0,0
2724361,0.322235459,-0.718763308,-0.8621521,39.06744141
2725910,0.262133538,0.223906069,0.234893799,85.86849927
2726610,0.258477182,0.216039048,0.092338562,44.02663915
2727276,2.547937341,-8.026141273,-7.965752125,16.08604748
2727368,0,-0.229843363,-0.229843363,0
2727670,1.742964453,0.183162031,0.581808765,7.00413795
2727728,0.287300256,-0.161761751,-0.077163696,87.18939257
2728073,0.092015357,-0.020142614,-0.02180481,72.67184341
2728821,1.133899867,3.498500029,3.179499984,6.67821346
2728864,0.019417365,-0.535162553,-0.536117554,4.605717438
2729073,0,2.565999985,2.565999985,0
2729277,0.161566951,-0.055175251,-0.075180054,89.98637042
2729525,0.280055218,-0.063340657,-0.061080933,86.80058309
2729963,5.73357868,5.14197018,8.731920242,80.09385525
2730096,0,3.126922846,3.126922846,0
2730302,0.117046249,-0.016120453,0.017349243,88.91199394
2730507,0.388590234,-0.000952641,-0.006591797,82.3067444
2730730,4.979819327,3.702124931,5.59781456,68.31315878
2731309,0.656058446,-7.098340852,-7.048745155,0.981938896
2731418,0,-0.110778809,-0.110778809,0
2731685,0.393788089,-0.002986884,0.064964294,83.88915736
2731718,0.408515425,0.315786404,0.246734619,79.61814502
2732115,0.261187992,0.089819594,0.008773804,77.2112191
2732176,1.982154587,-1.952018062,-2.77735877,39.98100621
2732239,5.288289175,0.465369962,0.217879012,86.00704522
2732240,0.664736447,-0.010491753,-0.120117188,76.51488345
2732374,0.235905923,0.179382901,0.149688721,84.71513261
2732750,0.193134416,0.073118147,-0.009399414,88.43267119
2733076,3.456711729,5.963883841,7.846038342,51.19489507
2733135,0.303122453,-0.028246751,-0.060913086,39.34340142
2733227,4.041889351,6.01082689,6.063500881,58.48105157
2733613,4.408679767,-0.833464152,-0.334001347,69.23215773
2734558,0.231563695,0.043653571,0.08581543,89.36165733
2734733,0.155557742,0.024666725,0.018371582,86.46501506
2734798,0,-1.917814136,-1.917814136,0
2734883,3.533717672,7.173539667,7.737999916,44.72014349
2734971,0.320874655,0.024667396,-0.057937622,89.90481901
2735011,3.094191936,1.682905834,1.075029373,45.11806187
2735085,0,-5.018000126,-5.018000126,0
2735170,0.659699236,2.854538456,2.872999907,11.86515188
2735197,0.134470075,-0.033842163,-0.034622192,29.75180581
2735295,0.070895443,0.03692261,0.044464111,57.30361502
2736309,0.484851666,-0.450894249,-0.267501831,69.41850182
2736318,0.33750902,0.198423014,0.309341431,79.16109318
2736738,0.130271111,0.009699849,0.005661011,89.8693504
2736841,0.670989827,-0.11905628,-0.05406189,89.73853273
2736895,0.717266137,6.141314864,6.135329247,0.08148428
2737129,0.265920193,0.139291071,0.156921387,83.91870463
2737152,0.485224889,-0.422690545,-0.523529053,89.83189736
2737844,0.566404348,-0.233243954,-0.070373535,70.77532513
2737914,4.918656466,5.259963529,6.409473658,88.62315064
2737941,0.565532875,9.590117623,9.729999542,0.010882139
2738065,0.512418288,-0.113257353,0.019165039,78.88564103
2738601,0.122663791,0.899850179,0.91545105,5.319766292
2738603,0.109327923,0.888963787,0.915611267,9.692482097
2739132,0.163336099,-0.005247482,-0.003379822,42.53151558
2739314,0.290568128,-0.003023118,-0.004074097,73.18462733
2739633,0.300024086,0.162749533,0.086769104,89.32797535
2739791,0.391255717,0.172478277,0.011795044,42.00876971
2739900,0.17552007,-0.036915034,0.017501831,89.70914535
2740218,3.662430918,0.04458066,-0.444999993,49.55628797
2742885,0.221627132,0.005650482,0.005950928,89.58311758
2743451,0.195496784,0.263451621,0.355537415,63.21850716
2744035,0.626308526,-0.461188495,-0.697433472,49.35384861
2744198,0.319926756,0.13184694,0.008087158,74.17695833
2744205,0.349702876,0.193775526,0.008628845,61.70656034
2745135,0.425547353,0.791552107,0.909759521,44.92288916
2745218,0.221491477,0.022947054,0.054473877,71.05489701
2746495,0.416877829,0.0987721,0.070098877,50.27573701
2746498,0.108562572,0.073073317,0.069198608,32.69708378
2746514,0.535635907,-0.268914079,0.004119873,71.05224067
2746883,0.221405544,-0.041193801,-0.007278442,89.04094452
2747523,0,0.964892745,0.964892745,0
2747524,2.625221221,-0.981918693,-1.213897347,58.53758574
2748031,0.418387823,-0.340657678,-0.263381958,89.22212688
2748369,0,-0.04359436,-0.04359436,0
2748797,0.69159613,0.392155609,0.462095037,32.08311502
2749632,0.280028577,0.160154453,0.082557678,85.55109707
2749654,0.062169593,-0.003135624,-0.008071899,70.33103773
2749816,1.972146009,3.353695648,3.141000032,77.25197938
2749882,0.391006066,0.223260902,0.023864746,44.32423782
2750107,0.153142626,0.036095149,0.025718689,74.26560643
2750211,0.537812971,0.333158642,0.705963135,67.07462046
2750376,0.234742691,-0.017758233,0.003265381,37.44470954
2750925,0.199856056,-0.00733624,-0.012924194,88.10646998
2751037,0,-2.150058746,-2.150058746,0
2751730,0.207233946,-0.028441941,-0.048217773,88.70014378
2751832,4.043149986,-1.756702624,-1.63289547,87.78076224
2751878,0.352433626,-0.152279615,-0.066589355,86.25454955
2752249,0.463149222,0.084304165,0.010284424,86.2244188
2752384,0.178864867,-0.069747064,-0.003128052,89.62904688
2752436,1.642581023,-0.143254871,0.038308397,82.22270588
2752664,0.417079379,-0.140708385,-0.000732422,79.44320672
2753435,0.240157444,0.229165152,0.24230957,82.84592232
2753457,1.925212634,0.741847137,0.967287004,26.82338995
2753522,0.1488353,-0.091360486,-0.086193889,45.59888173
2753763,0.169238856,-0.910797119,-0.976242065,25.86395978
2753766,0.418377175,-0.202266932,0.004943848,72.97539467
2754107,0.168161999,0.058725162,4.58E-05,87.84873488
2754392,0.373930259,0.187463824,0.066772461,85.77474582
2754562,0,-7.393294811,-7.393294811,0
2754586,0.12899199,-0.904845294,-0.950263977,10.92130358
2754695,0.177966257,0.102050453,0.114921682,5.884480626
2754756,0.580452458,0.038307229,0.229843363,18.07077406
2754763,0.215763944,0.051068825,0.03024292,77.10581464
2754954,1.070449928,9.003542716,8.95219326,13.67523194
2754992,0.526100442,-0.627329995,-0.841567993,85.38545327
2755546,0.222944569,0.040677919,0.004623413,89.94184338
2755567,0.434733758,0.181050343,-0.061233521,43.70876124
2755674,0.251919611,-0.050465584,-0.055381775,86.97095342
2755987,3.894566008,1.870088267,3.100585938,57.0110718
2756078,0.393691586,0.099081918,0.024215698,89.88100853
2756211,0.219779805,0.134908033,0.097801208,89.77247406
2756239,2.680928167,0.645323576,0.3711126,63.67801825
2756248,1.172260439,-2.712437434,-2.345120668,19.64910203
2756367,2.303981191,0.953628935,0.262165099,38.45979032
2756368,0.675012405,-1.232493392,-1.230619669,18.24968868
2756550,0.729472016,-0.347649972,-0.552185059,85.01304018
2757038,4.916817528,-1.329084009,-0.871489435,88.07935722
2757295,0.341210882,0.206244153,0.151611328,86.54940448
2757582,0.407868539,0.008537605,0.046897888,88.34676147
2757628,0.072627445,0.106365204,0.110229492,0.628386354
2757643,0,1.654393315,1.654393315,0
2757914,1.422023454,1.831298292,1.465251446,50.18438394
2757966,0.699842166,-0.201634514,-0.433670044,77.20755726
2758018,3.845535548,2.251221654,0.162805721,20.63663151
2758029,0,-0.07522583,-0.07522583,0
2758351,0,3.241847992,3.241847992,0
2758358,0.428994009,-0.066741629,0.024475098,89.41309959
2758459,0.300001384,0.08823674,-0.003082275,89.79509808
2758501,3.084207841,0.511960143,0.259770885,71.97138216
2758845,2.163939049,0.205416665,0.305999994,67.88024622
2758941,4.246814952,1.038525996,2.04823947,83.04960486
2759096,0.766035806,-0.260489145,-0.18435353,66.24058277
2759334,2.457387515,0.827399993,0.342500001,23.65981362
2759335,2.722069411,-2.102131058,-1.527500629,43.95773422
2760117,0.073833923,0.031806547,0.026229858,75.10967846
2760534,0.258172478,0.001654503,-0.061096191,88.0389794
2761348,0.516347826,0.508923704,0.485824585,88.30403729
2761482,0.156820238,1.15041393,1.15041393,0
2762029,0.337057353,0.034658917,0.026336219,35.18331663
2762170,1.353405082,-0.579561093,0.229850382,32.19067694
2762181,1.34400827,-2.807285718,-2.529999971,21.93905699
2762551,0.376104517,0.128686789,0.165458679,83.28407654
2762636,0.18278124,0.022665907,0.005187988,83.06433839
2762870,0.24569901,-0.218539983,-0.175598145,87.83665808
2763350,0.436736683,-0.012912133,0.185897827,81.06549587
2763870,2.358262553,-3.157816755,-2.734261751,26.93068346
2763937,0.251827443,0.00334394,-0.083824158,66.07684932
2764329,1.359155451,1.208160009,1.116999984,20.89437365
2764762,0.169351667,-0.936195995,-0.94745636,85.73952262
2765485,0.262315801,-0.007754856,-0.005142212,89.16318901
2765806,1.999720779,-1.215693049,-1.437762022,35.71790393
2765957,0.2494741,0.00506923,0.043899536,89.43762398
2766028,0.119504495,0.130366178,0.13432312,26.68563321
2766397,0.433085319,-0.353663623,-0.39024353,86.03495705
2766932,0,-0.074859619,-0.074859619,0
2767020,0,0.068000004,0.068000004,0
2767182,0.585744313,-0.392250977,-0.462417603,17.37937329
2767275,0.218524935,0.043848374,0.020767212,42.39267723
2767471,0.182917723,-0.051253654,-0.044364929,88.00612128
2768150,0.416493252,0.005736048,-0.018859863,84.61649344
2768211,5.382494475,-1.062211554,-0.706311047,65.20012769
2769955,0.340875467,0.839148088,0.998878479,63.01701259
2770342,0.532856664,-1.468249351,-1.309020996,15.0944657
2770409,0.226307454,-0.154610656,-0.190261841,80.82939871
2770763,0,-2.080624819,-2.080624819,0
2770912,0.237384556,0.337610322,0.47026062,86.29236704
2770987,0.422119938,-0.035499397,-0.004142761,85.3596141
2771130,0.497409448,0.013293034,0.113945007,88.54738548
2771160,0.010437012,0.082336426,0.082336426,3.364607669
2771320,0.322149535,0.146283882,0.076370239,85.7261954
2771593,3.983648758,1.054800743,0.241821751,89.48482522
2771605,4.512600266,-1.515552227,-1.898659945,81.57008485
2772056,0.349686145,-0.233016196,-0.224449158,57.57206512
2772159,0.178657999,0.011435789,-0.002662659,86.04028804
2772471,0.275096432,-0.131590373,-0.202079773,42.59517704
2772513,0,0,0,0
2772932,0.249205843,0.308919681,0.351989746,86.79608322
2772951,3.858650925,-2.54653279,-0.497993946,9.005740829
2772999,0.144875361,0.088115147,0.018508911,0.718072836
2773082,0.006835938,-0.521392822,-0.521392822,0
2773208,0.438937165,0.204704248,0.251391187,24.58133628
2773678,0.241978432,-0.136823631,-0.095367432,88.10837096
2773769,5.658923239,6.017421282,9.39274025,61.08636542
2773971,0.261273064,-0.668924185,-0.758728027,57.37227431
2774080,0.267983937,-0.009499765,0.014892578,75.16834694
2774094,0.692579414,-0.220307066,0.002090454,65.97395691
2774189,0.114194342,-0.005260509,0.014160156,49.88466042
2774793,0,0.651000023,0.651000023,0
2774923,0.110969543,0.110969543,0.110969543,0
2775135,0.596059925,-0.092100358,-0.229843363,16.05988283
2775411,0.308452003,0.017833068,0.004089355,89.63182544
2775576,0.413394178,0.434425066,0.472564697,36.17202967
2775641,0.328441646,-0.343167915,-0.417205811,73.10662667
2775679,0.251390964,0.110852524,0.105636597,84.89264707
2776057,0.035312758,0.074638171,0.077972412,3.400103672
2776246,0.399736169,0.125407454,0.083580017,48.85903347
2776376,0,7.268796444,7.268796444,0
2776674,0.261646176,-0.428492629,-0.40223816,16.65948894
2776689,0.02993704,0.104573355,0.106338501,14.46833176
2776793,0.229474499,-0.092524211,-0.095123291,87.96499743
2777082,0.447013542,0.220989355,0.114692688,88.57350054
2777870,0.229132145,-0.442374278,-0.387893677,18.35634907
2778018,0.280840927,-0.047941763,-0.045082092,87.61567486
2778674,0,2.181117773,2.181117773,0
2778868,0.789696882,0.158443301,0.067977905,79.8562005
2778943,0.437173526,0.167246987,0.051834106,50.5724551
2779281,0.164337386,0.08797697,0.017189026,63.38201332
2780198,0.223545754,-0.187555671,-0.146064758,89.80949527
2780510,0,2.748543501,2.748543501,0
2780672,0.304977932,-0.117918905,0.001693726,40.87067637
2780680,0.45817965,0.334724088,0.293792725,67.93689162
2780739,0.271564652,-0.430186404,-0.497146606,86.71691424
2781211,0.243158991,0.923137902,0.954833984,26.77302019
2781611,0.28238663,0.182227254,0.191818237,76.55871798
2781683,3.183675376,1.152158169,-0.021548472,78.60189573
2782508,0.458707872,-0.011832729,0.141525269,88.39599898
2782881,0,0.797731996,0.797731996,0
2782884,0.292010729,-0.294814004,-0.274421692,82.40365567
2782919,0.328242665,0.052825753,-0.031448364,83.85857506
2783519,0.171071846,0.562126298,0.567871094,25.48525984
2783605,0.279997063,-0.086387953,-0.001739502,75.9665178
2783671,0.043188661,0.247753143,0.248268127,2.916587585
2783782,0,1.098938584,1.098938584,0
2784930,0.181413968,-0.529909642,-0.456619263,64.60089616
2785127,0,2.884353638,2.884353638,0
2785427,1.109597288,8.591424103,8.844450951,1.041036674
2785613,0.95040632,-2.384145196,-2.698347807,11.87923693
2786248,4.21268756,2.45560185,0.227456108,43.11373763
2788211,0.310655259,0.060801622,-0.005432129,87.28703135
2788550,0.433334643,0.090183825,0.030784607,89.60384218
2788857,0,-0.298995972,-0.298995972,0
2790641,0.34713763,0.165688284,0.044677734,74.84630863
2790828,0.388832837,0.250408601,0.083717346,89.92430196
2790991,3.152944191,-0.586676524,-1.03263092,79.71543734
2791003,0.501930237,-0.49420929,-0.49420929,0
2791050,0.220976568,0.198849518,0.197692871,89.41046009
2791979,2.527481396,10.02238036,9.385271072,11.42043804
2792135,0,9.113830566,9.113830566,0
2792141,0.406298544,0.271349393,0.077453613,75.53605938
2792906,0.188189068,-0.069341046,-0.102859497,89.36616161
2793154,0.271344292,0.061990911,-0.090881348,25.98337752
2793330,7.340543677,1.723346353,6.224924326,80.21592129
2793814,0.466515162,0.300457496,0.347572327,62.80118463
2794002,0,-3.33043623,-3.33043623,0
2794110,0.363678687,0.339416262,0.20627594,89.34643952
2794297,2.985397007,-0.27070909,-0.107739076,42.3930809
2794341,0.297871014,0.074825182,-0.023704529,87.70354968
2794357,3.010829286,0.738109115,0.745000005,44.73698582
2794359,0.554490716,-0.500757217,-0.729103088,5.793449251
2794367,0.918843009,-4.583285638,-4.501999855,8.305845428
2794373,0.291298762,-1.159276517,-1.235778809,7.275290991
2794416,3.084001972,-0.385411653,-0.612915635,89.83833443
2794417,0,-0.773956299,-0.773956299,0
2794472,1.157646951,1.106886361,1.363000035,63.86839454
2794476,1.928697541,1.826273022,2.067456245,76.96734254
2794479,0,0.693121374,0.693121374,0
2794536,2.426188056,1.435682997,1.215057373,68.16280048
2794555,0.289496901,-0.077501497,-0.009933472,89.34000889
2794569,0.205256034,-0.026006752,-0.051330566,89.83580087
2794572,0,-0.74220252,-0.74220252,0
2794581,0,-0.976834297,-0.976834297,0
2794606,0.493514659,-0.054668491,0.00075531,78.2617653
2794662,0,0.723048925,0.723048925,0
2794677,0.578114728,-2.801133307,-2.795000076,11.44578089
2794749,6.05834185,2.981301604,5.391742229,86.84510972
2794829,2.464650858,-0.452026367,0.265487671,83.81809448
2794879,1.575098128,0.014290394,0.38965632,58.97981608
2794908,1.321989273,-0.851279076,-1.048721313,25.11675274
2794973,0,8.686264038,8.686264038,0
2794982,3.866826138,-3.619640255,-1.857957244,76.08069274
2795015,1.531808683,-0.43573761,-0.32081604,41.33915849
2795024,2.536239676,-1.47587252,-0.733822823,48.21462825
2795027,0.312881689,0.073002792,0.108108521,85.39158234
2795046,1.373565333,-1.98864483,-2.170578003,0
2795074,0.945709705,1.459265947,1.459265947,11.09105716
2795169,0,0.114921682,0.114921682,0
