std_accX_end,mean_accX_end,median_accX_end,max_angleX_diff
3.54693228,8.273987036,9.526819229,18.12213876
0.21822642,0.081950165,0.010253906,82.62143262
3.112314058,4.393298679,6.315093994,1.284860757
0,6.700332642,6.700332642,0
0.171226599,8.204620361,8.145599365,0
0,-1.015731812,-1.015731812,0
1.687834156,-0.109276319,-0.541687012,43.22838254
0.901037248,7.087927341,7.304122925,36.96261369
0,-0.537261963,-0.537261963,0
0,0.634482801,0.634482801,0
0,-0.799687803,-0.799687803,0
0.211120396,-0.03717325,-0.0548172,88.92401012
0.457486978,0.087768322,0.032623291,84.254373
0.223014733,0.042873696,0.01625061,89.71593022
1.647056178,0.770601078,0.559150696,86.80822135
0.536221463,-6.844883845,-6.644439697,1.995363977
0.260642675,-0.020981252,-0.104614258,88.44995711
0.268567347,0.090987562,0.104980469,89.83228355
2.756383398,0.632330135,1.469619751,84.86213425
4.166431297,4.060614037,2.211395264,48.04205242
0.257208315,0.027676118,0.023849487,89.46968785
0,9.729999542,9.729999542,0
4.915792209,3.47455554,5.132999897,75.76258363
0.432827046,-0.925208331,-0.68900001,10.89850656
0,0.075999998,0.075999998,0
0,8.178842545,8.178842545,0
2.722953039,0.445719778,1.062889099,89.35067492
0,2.662433624,2.662433624,0
0.407815152,-0.11389764,0.010513306,85.51535028
0.06104615,0.085189819,0.115661621,5.594762467
0.36004601,-0.834066593,-0.933067322,58.71353206
0.080636263,-0.633676508,-0.642150879,0.061559045
0.189558038,0.056093968,0.085632324,83.94056286
2.426550797,0.307641562,-0.150314331,89.76991519
2.082626198,-1.522625005,-1.416999996,85.8345224
0.386134359,-0.609421459,-0.712059021,65.66951024
0,-0.536000013,-0.536000013,0
0.610392191,-0.026584387,0.017242432,75.64320772
1.548095527,-0.449148515,0.075999998,87.33018249
0,-0.305999994,-0.305999994,0
0,-1.061981201,-1.061981201,0
0.185362167,-0.002154382,0.002700806,89.6313503
0.186548929,-0.005015103,0.014511108,89.66476176
0.211087191,-0.170641282,-0.154426008,42.15791963
0.301033236,-0.07419154,-0.129722595,81.8925436
0.318500469,-0.006174402,0.03692627,84.63787581
0.257991532,0.17755002,0.17199707,87.91098121
0,-3.763799906,-3.763799906,0
0.446020483,0.265818918,0.322029963,9.097853086
0.424909426,0.28648419,0.311255723,58.2471073
0.333443877,0.146803296,0.150344849,89.89805488
1.251205291,1.209969716,0.525527269,28.75692243
0.12962666,0.016324997,-0.046737671,24.27203561
0.402977092,0.129568071,0.176269531,87.59319488
0.25952621,-0.081905675,0.009658813,88.26238539
0.398448468,-0.0453527,0.109436035,79.96382644
0.051975263,-0.181247778,-0.183555603,85.53170898
0.034972096,-0.002909932,-0.00226593,49.02276269
0.028297424,0.775169373,0.775169373,0.215183935
0.128520519,0.160900656,0.158096313,52.15975343
0.370322097,0.381391668,0.357879639,70.89205776
0.480128016,0.212768674,0.115242004,67.05188907
0.201077883,0.05525587,0.010101318,82.51567107
0.391171625,-0.118789621,0.036529541,89.23528222
0.276171037,0.200619639,0.032608032,55.2178814
0.134732607,0.000577778,-0.002128601,79.78591986
0.208310528,1.431676229,1.39276123,3.906249543
0,0.689530075,0.689530075,0
0,0.926193237,0.926193237,0
0.226938821,-0.811232074,-0.817726135,12.00204045
0.196264229,0.031861244,0.032287598,86.52847012
1.204114448,-0.544740745,-0.442628041,47.0939091
0.504677028,0.369227971,0.537513733,87.09395188
0.210056867,0.124484,0.11289978,86.42222984
0.413499893,0.385213173,0.32396698,84.51821007
3.119981073,0.265897507,0.076616794,32.98842769
0,-1.302000046,-1.302000046,0
0.156260498,0.051526935,0.059745789,71.43868218
2.095345513,1.049552634,0.421000004,39.81031663
0.447750572,0.210255165,0.141441345,89.865126
0,-10.89799976,-10.89799976,0
0.227900666,-0.01045364,0.056808472,51.96792276
2.361756822,1.6320755,0.824432373,18.21782747
0,-0.00478855,-0.00478855,0
0,-2.181184292,-2.181184292,0
0.212971404,0.139783165,0.090377808,86.30794343
6.153513398,4.513870722,3.875133753,81.99949104
0.413020244,-0.708086108,-0.847640991,87.28338996
1.140146634,-0.110527039,-0.109527588,16.03555949
1.967031649,-0.767037964,-0.983413696,43.30430212
0.189800359,0.000866535,0.014144897,81.74514481
5.056674409,2.949746565,-0.379492551,85.51817516
0,8.363202095,8.363202095,0
0.37512147,0.333729589,0.412094116,72.98081316
0.441288457,0.456978189,0.371536255,88.39248408
0.443893961,-0.683728886,-0.829391479,81.51365187
0.266508781,-0.54292786,-0.592018127,54.97844641
0.219327682,0.050641217,0.109649658,88.72079931
0,-0.699707031,-0.699707031,0
1.378481638,0.540135948,0.659011841,36.81415432
1.530820792,-2.61892285,-3.297409058,35.83677235
1.511788361,-0.616452747,-1.237205505,24.99159614
0.471783272,0.267467443,0.513397217,72.28384661
1.753177911,1.208735568,0.868499756,43.41037767
2.087343278,0.891413906,0.688934326,59.17240184
4.146969375,-0.187542468,-0.602737427,67.3091682
0,-3.867233276,-3.867233276,0
0.192348964,0.001962109,0.015762329,89.51529312
2.164460143,-0.825879874,-0.02873042,87.34789109
0.20793833,0.095759983,0.053405762,88.44573081
1.497232835,-1.351209494,-0.835868835,35.30412669
0.500401581,4.677814364,4.851997852,0
0.11471271,-0.026254634,-0.085388184,86.07992073
2.277162129,-0.885140453,-0.242446899,84.07822442
2.647593155,0.292820963,-0.141944885,84.51725352
0.152353834,-1.777099955,-1.761999965,0.681973207
0.225776174,-1.531666676,-1.60800004,3.624183975
0.179500716,0.041639093,-0.022888184,89.61443256
0.248156832,-0.036356069,-0.010818481,89.50865375
2.614958589,3.313823639,3.172802687,82.52878771
1.040967718,-0.995701748,-1.378999949,46.51668246
0.36626278,0.48477633,0.516548157,88.72894066
0.265304484,0.084593549,0.002868652,89.7326675
0.876651646,-0.555986833,-0.459686726,32.19928563
0.402638306,0.027330433,0.019622803,86.06573361
0.382384055,-1.276500007,-1.187000036,5.905241472
2.189291031,-0.58031581,-1.225000024,40.6636195
0.320088077,0.025584792,-0.01335144,89.42591154
4.238111152,1.824388892,-0.267499998,70.84123102
3.854664272,-2.515888893,-3.447000027,72.20316351
0,-0.229000002,-0.229000002,0
0.016802013,-0.004586956,-0.018999999,45.27657485
0.725564483,-0.066740414,-0.021548472,69.95202851
0.142472957,-1.279020104,-1.296829224,0
4.125460832,-0.697969396,-0.611999989,60.55625277
4.981899091,3.010081812,4.690368652,84.5927746
1.255696025,-1.381344846,-1.149000049,27.63200208
0.160995113,0.131841291,0.176391602,19.72985961
0.210699278,0.093177619,0.093887329,84.92047349
0.290210414,-0.218957901,-0.239082336,87.67290917
0.365422397,0.118703393,-0.006118774,86.13093497
0.423852223,0.125201255,0.032974243,86.69450631
0.405082719,-0.544865552,-0.786872864,41.13818345
0.403592601,-1.44669445,-1.531999946,10.47775438
2.624976421,-0.562694101,-0.004364014,82.31199933
0.989659729,-0.134088229,0.296000004,16.47229124
0,-0.04145813,-0.04145813,0
0.390709523,0.445904333,0.457191467,81.14119809
0,0.008,0.008,0
0.272725486,-0.286336665,-0.359085083,83.9725813
0.224113512,0.009413749,-0.006637573,78.90231752
0.451040665,-0.265700774,-0.03679657,89.17835452
2.856577014,0.393290202,0.397674561,60.42655294
0.068246611,-0.013472114,-0.004981995,79.89206567
0.244447507,-0.004657004,-0.00352478,89.83176421
0,-0.371112585,-0.371112585,0
0,-3.101999998,-3.101999998,0
0.429535698,-1.321104179,-1.302000046,19.69785997
0.26974209,0.089940284,0.014297485,79.95928087
0,0.152999997,0.152999997,0
0,-1.431732655,-1.431732655,0
0,-1.312022567,-1.312022567,0
0,0.038307227,0.038307227,0
0.030882388,0.081746419,0.081100464,0
1.877018599,-1.468650034,-1.225000024,32.59999889
0.126769021,-0.09226617,-0.089660645,69.17564933
0,-2.126051188,-2.126051188,0
3.394466366,-1.142766325,-0.986411095,88.86731018
0.372013159,0.08200577,0.079498291,84.58489842
3.942553917,2.988970531,1.973327637,30.53809768
0.246777885,0.688115907,0.766983032,22.75792358
0.262897668,0.078152283,0.095306396,87.78577234
0,-1.761999965,-1.761999965,0
2.219766689,0.566844441,1.225000024,64.28994271
0.247819234,0.144629282,-0.017364502,31.06382786
0.231350984,0.146600719,0.081253052,80.68498298
4.87912761,8.360988289,7.968146324,88.42135957
2.53795979,-0.067918174,0.195098877,87.47131525
3.415811475,0.641461521,-0.765999973,44.27447473
3.394776363,2.535984358,2.501940727,84.39308094
0.810470087,-2.098800015,-1.991999984,0.472254042
2.170047048,0.588028134,0.082008362,76.11055188
0.314211778,-0.093020069,-0.083618164,86.12669074
0.18848552,-0.035978195,-0.001617432,88.89322547
2.337436565,-0.548863345,-0.442927316,39.62205891
0.799480411,-1.097230782,-1.034000009,25.12024874
4.848468326,-3.236338727,-2.665461779,83.40086659
0.351697452,-2.252941202,-2.298000097,6.796692841
1.569331893,0.014907075,0.299755871,85.41081074
0.184129189,0.015570831,0.026893616,80.82505406
0.561413348,-1.400187493,-1.378999949,35.12588684
1.563933124,-1.105988092,-1.149000049,67.14403901
3.74153131,-1.125873336,-1.426944226,56.70915052
0.247652238,-0.02806957,0.008148193,89.54295654
2.537407234,0.585413019,0.082931519,79.78449052
3.183126179,-0.706519674,-1.126144409,83.60962115
0.195821032,-0.038962248,-0.023605347,89.83235782
0.26861643,0.065444492,0.059448242,89.01346945
0.280018817,0.1281364,0.074356079,87.57264343
0.179000124,-0.120638007,-0.154190063,88.53501851
0,9.060531616,9.060531616,0
2.073285447,-1.203145839,-1.646499991,49.94903213
0.254326439,0.102173964,0.001464844,88.8791727
0.55993982,-1.932606557,-2.068000078,17.62657257
0.254386218,-0.080485059,-0.098846436,87.92085506
0,-2.220999956,-2.220999956,0
0.286510913,-0.224920654,-0.083557129,8.002410819
0.071349111,0.10852755,0.117080688,12.49760683
0.136588803,0.033957741,-0.025970459,89.67505284
0.133733206,0.105631334,0.058441162,28.53099015
4.136478801,-0.935774142,-2.309278011,48.73894202
0.153732243,-0.006492103,-0.018692017,87.50553883
0.551855403,0.164475342,0.101913452,76.6567557
0.27609296,0.144445754,0.076950073,86.80906651
0.604799986,0.16746132,0.057495117,76.95884949
0,-0.021548472,-0.021548472,0
0.650909084,-1.554850012,-1.378999949,8.915362421
0.070554501,-0.014167786,-0.023666382,16.39637565
0,-0.497299194,-0.497299194,0
4.41535243,-4.557087048,-4.014694214,42.92653963
0.145949993,-0.274979213,-0.275054932,69.31688794
0.244550862,0.059781318,0.014572144,87.22082767
1.437724604,2.264279772,2.360754967,48.14046968
0,-4.259414673,-4.259414673,0
0.053297253,-0.273241043,-0.285232544,5.006016725
0,3.814079762,3.814079762,0
0.204952149,-0.010038076,0.015083313,89.73690859
0.182664462,-0.03603008,-0.006156921,89.66280164
0.233485619,-0.204167022,-0.225738525,89.88864469
0,-0.804476321,-0.804476321,0
0.244022794,0.01565866,0.046691895,89.34680641
0.215546904,0.065447184,0.075820923,88.88919385
0.22485335,0.025850315,-0.06300354,86.83033946
0.022634587,-0.752966309,-0.746200562,0.96054438
0.215949736,0.036048282,0.026100159,89.81802335
0.321033073,0.212421709,0.109558105,51.71083684
3.333647094,0.936347499,0.957313538,82.59834298
0.253534343,-0.010174073,0.063468933,89.62037275
0.236482029,0.172654724,0.095176697,2.897868211
0.412125599,0.189059836,0.149154663,67.83774205
0,2.083019018,2.083019018,0
0.127847326,0.065654254,0.031364441,84.96906808
0.37852748,0.010527589,0.006462097,81.14595064
0.193855684,-0.306544978,-0.229598999,24.08779622
0.200249068,0.017012363,-0.010559082,85.71502145
0.179103193,-0.015087128,-0.017463684,89.81895261
0.715400024,2.959233335,2.825158119,6.828980806
0.232329406,0.180410966,0.139434814,88.81123004
0.226543675,0.005959901,-0.035110474,88.56451051
0.34355104,2.940753434,2.959323645,9.236374654
0.21811471,-0.246872965,-0.243331909,89.24063407
0.338095686,-0.436419469,-0.512527466,88.36952739
0.356937554,-0.680226424,-0.831039429,69.26193826
0.22111217,0.127898639,0.133743286,88.46681957
0.147736655,0.118913763,0.137832642,85.67858021
0.268929591,0.009066726,0.008987427,89.91158502
0.236467712,-0.442173473,-0.473937988,77.67266523
0.225425184,0.063362897,0.04221344,81.73251049
2.144494662,-1.443888738,-1.514694214,18.40781506
0.103001135,-0.018002576,-0.001068115,41.36392007
0.434414868,-0.018959532,0.142318726,85.23145073
0.267152608,-0.095930012,0.010566711,88.79263125
0.099341771,0.328437987,0.364120483,12.21024682
0.380205444,0.346918562,0.290603638,86.2669561
0.254187589,-0.012897686,0.01965332,84.67778143
0.312672904,0.118773939,0.040161133,82.29466591
0.191342442,0.0768137,0.103286743,83.40724474
0.689054993,-1.816976764,-1.838000059,26.33740378
2.069270393,-0.644961527,-1.301999986,46.91574322
3.159153541,0.687444826,1.102529883,36.62511357
3.482249572,3.042159779,3.912125587,48.90289961
0,0.157424927,0.157424927,0
0,-1.549636841,-1.549636841,0
0.345467248,0.58066532,0.689598083,89.88895923
0.361105467,0.244519115,0.152008057,89.66120726
0.265299513,0.187361199,0.187774658,73.27532593
0.269050558,-0.028383925,-0.033317566,89.9759976
0.195996609,-0.038649547,-0.017578125,87.97808539
0.062734726,0.063960358,0.067337036,79.72449347
0.575080261,0.170615384,0.305999994,45
0,-0.611999989,-0.611999989,0
0,-0.91900003,-0.91900003,0
0.225209086,0.076431912,0.100494385,89.69768427
0.368474297,-1.354923102,-1.302000046,7.899498657
0.857117413,0.478549993,0.458999991,85.62263627
0,-1.684999943,-1.684999943,0
0.294576005,-2.441708351,-2.375,5.491601832
2.458934833,-0.057775507,-0.305999994,80.98354848
1.96189539,6.940624612,6.731503487,11.63764278
4.947148716,4.015807146,3.935470581,89.80039349
0.350744008,-0.77490652,-0.867385864,48.5972695
3.580678322,3.101180485,2.434310913,89.8396882
0.504501311,-0.392286397,0.047058105,44.24611089
1.595008705,6.116776686,6.288970947,46.01037249
0.390229876,0.046734829,-0.134086609,86.17079622
0.275242581,-0.145841822,-0.209861755,81.12079635
0.513906041,-0.524214914,-0.766647339,74.52839642
0.297452868,-0.052089288,0.00428009,88.36019657
0,-0.598568678,-0.598568678,0
0.040618459,-0.983365338,-0.983261108,4.298847601
0,-1.007958889,-1.007958889,0
2.383378287,3.963565194,2.911000013,23.09973947
1.704279766,6.937672685,7.624694824,9.687088621
0.774982785,0.110147738,0.302474976,49.34611209
0,8.548171997,8.548171997,0
3.978996991,1.110776944,0.762557983,70.00697065
0.146550043,-0.08562658,-0.125091553,89.66391095
0,-1.209579468,-1.209579468,0
0.121335082,-0.009941189,-4.58E-05,75.20152937
0.271881934,0.087553583,0.003601074,84.24347089
0.360168052,0.169033635,0.195983887,89.34491388
0.22174875,-0.042936098,-0.025604248,89.64120305
0.854454125,-9.069886641,-8.815444946,0.442845741
0,-8.315063477,-8.315063477,0
0.524402165,-0.366035214,-0.623016357,89.75838206
1.406168785,-0.553009071,-0.399843901,37.75399949
0.088862413,-0.00181178,0.002632141,14.42397414
4.098070639,0.059854578,-0.16998291,82.64608572
0.025701445,0.251949342,0.254058838,21.39889467
0.287089389,-0.031718343,-0.109596252,89.68483624
4.300135156,4.506817148,2.753326416,52.85035999
0.262996086,1.090389476,0.998855591,4.763991327
2.238249132,3.540425164,4.280830383,56.41115207
0,-0.990753174,-0.990753174,0
2.069792877,-0.896096559,-1.359085083,34.32556172
0.298625786,-0.033848815,-0.107452393,76.06214238
4.628432798,5.106419439,7.153874874,38.2091717
0.096470572,-0.018480671,-0.01751709,32.517516
1.874123599,-2.392346087,-2.992843509,52.38973832
0.404232315,-3.444969686,-3.433288574,3.696051314
0.909757344,3.741339207,3.112462282,9.143012513
0.201173501,0.033881319,-0.049301147,89.52656945
0.187371563,-0.065051693,-0.080627441,85.20807204
4.246886737,-4.639471098,-3.290504456,78.51770468
0.203051407,-0.015169573,0.035171509,88.6069602
0.200839975,-0.0230175,-0.019874573,88.63066627
0.227808061,0.171937688,0.24471283,75.87998695
3.243398191,-0.982304675,0.229232788,39.12822902
2.20325072,0.131196594,0.223167419,55.61733729
0.160997709,-0.05587981,-0.016647339,89.94984734
0.226363706,0.007026888,-0.019065857,89.6373388
0.217402846,-0.057649038,-0.079025269,88.99393032
0.066134605,0.404710179,0.394515991,17.02466861
0,-0.02154541,-0.02154541,0
0.008678157,0.035881616,0.037284851,1.444617131
0,-3.924216509,-3.924216509,0
0.263117849,-0.020957448,0.015792847,64.26920995
0.172152023,-0.02425282,-0.056869507,87.82299635
4.572756871,2.616258297,0.098165266,7.37126181
0.93899389,0.610740662,0.841636658,29.73955902
1.298318242,0.291878836,-0.531143188,19.60768344
1.79642655,0.676262575,0.303451538,35.34173011
0.426180419,-0.610501184,-0.84034729,62.46586263
0.43828155,-0.664593109,-0.848770142,79.30249542
0.406203324,0.184975187,-0.019500732,41.679192
0.097791364,-0.90051225,-0.885437012,4.761587791
0.025638722,0.150041695,0.156402588,6.595322922
0.224063458,-0.105058652,0.00227356,19.00457279
2.732630705,1.376160317,0.221359253,45.98493617
1.03041824,-0.188570518,0.157608032,24.12856947
0.346667342,-0.521552733,-0.66859436,43.95225916
0.547995396,0.475454976,0.851043701,42.64575631
0.153873471,-0.626005888,-0.663459778,10.8062691
0.183700301,0.212819781,0.228866577,89.84799438
0.243606915,0.07781332,0.086875916,82.60574594
0.229329543,0.052364464,0.112060547,84.63363833
0.240400941,0.091222421,0.01461792,70.01596538
0.039680513,-0.961352126,-0.958526611,2.177113886
0.306108632,0.044867678,0.072143555,89.13451597
0,2.724601507,2.724601507,0
2.350181364,-0.54230104,-0.950454712,88.04288764
2.825690384,0.882361242,0.170837402,70.21190162
4.727105762,2.347482412,1.07739079,68.93983789
0.208500001,0.022174429,0.026977539,81.85835094
0.275096671,-0.248125029,-0.354034424,89.4533426
0.272742622,-0.101125352,-0.094749451,89.83852018
0.05353594,0.015702503,0.010498047,18.16501
0.359683653,0.602619906,0.690185547,36.03246034
0.31038503,-0.009073714,-0.032302856,66.81002389
0.227922167,-0.017612061,-0.063537598,89.62393083
0,-0.021011353,-0.021011353,0
0,9.537887573,9.537887573,0
3.003224732,2.237064571,1.225143433,55.47233622
1.85739977,3.701215676,3.241749048,21.78974829
5.166067176,0.957548512,-0.799687803,79.84509289
4.679798442,1.872139728,3.452438831,39.31458523
1.853502827,0.656123928,0.474051923,39.88785387
0,1.690306425,1.690306425,0
5.397286566,-2.119340613,-2.33913517,87.48403879
0.3780693,0.148351147,0.013320923,87.40887389
0.251191176,0.068922471,0.05266571,87.22114736
0.187270629,-0.088694075,-0.0730896,89.44574095
3.671307763,-0.254204985,-1.795651317,83.74490125
6.512860077,1.092741828,2.205059767,82.13181421
0,-0.132878199,-0.132878199,0
0,0.032321721,0.032321721,0
0,0.875080705,0.875080705,0
0.298734322,0.050355184,-0.011169434,83.4350273
2.277225747,2.694713472,1.963245392,33.39214719
0,5.54018259,5.54018259,0
0.531512737,1.766920805,1.766920805,2.9014597
7.237953089,1.122813535,-0.526724398,88.52082618
1.773196065,-0.140290025,-0.02873042,68.34210961
2.742853584,3.406209,4.702212334,81.2702247
0.211885906,0.135717371,0.162948608,86.64003665
0.439480805,-0.580133237,-0.742980957,86.23776368
3.839738523,-1.460888888,-1.402999997,88.47134033
0,2.45600009,2.45600009,0
0.327919243,-0.316608694,-0.336532593,79.49740186
0.227125083,0.088933098,0.071304321,88.18495649
0.998526407,0.992311665,1.38230896,27.01362748
0,2.135627985,2.135627985,0
0.336986747,0.101215528,0.008285522,89.96449604
0.647696608,-0.247519416,-0.157150269,34.79366606
0.151682389,0.141010631,0.09753418,34.19322132
0.208052825,0.237231945,0.294830322,89.12988327
0.536532929,3.226303161,3.136499882,11.23273687
0,4.965576172,4.965576172,0
2.377036443,1.459892983,1.18991828,69.82376074
5.730266614,-1.516805448,0.384269714,87.05250795
4.066439141,-8.041460673,-9.471458435,83.8845201
1.673276217,1.456038975,1.182735682,89.85104228
0.557530608,1.67775574,1.651999116,44.60163889
0,9.619902611,9.619902611,0
4.776979315,4.768898364,5.880159378,70.60900734
0.20451643,-0.030327608,0.004272461,89.63268366
0,-2.161956787,-2.161956787,0
2.498046875,-2.230514526,-2.230514526,28.34564099
1.85203413,-0.499694959,0.076004028,49.68111987
0.027807133,0.226078033,0.223258972,6.209054075
0,8.473338127,8.473338127,0
0,3.174713135,3.174713135,0
0,1.383850098,1.383850098,0
0.215313636,0.005911665,-0.076965332,87.59543597
0.033550564,0.676804392,0.674194336,0.845639761
0,2.56658411,2.56658411,0
0,0,0,0
2.589889445,-0.095961619,0.04189853,83.54673234
0,0.20470424,0.20470424,0
0,-0.165199921,-0.165199921,0
0.198249476,0.149174183,0.169677734,89.72426036
6.856366262,-2.428665354,-3.463318527,71.56800425
0.263689508,0.20962425,0.081703186,82.19522254
0.547598278,-0.070089901,-0.090919495,89.8886871
0.578532127,3.264094989,3.131615877,4.756672928
0.366273357,0.048981333,0.032104492,88.78126563
0.459703424,-0.56424898,-0.908676147,37.84606176
0.168960386,0.001707837,0.029464722,89.98138719
0.494240927,-0.296503306,-0.175949097,85.12994013
3.515906672,6.843600039,8.837267876,63.41646203
0.349216481,0.031905659,0.003433228,88.02906384
0,-9.274999619,-9.274999619,0
0.372497765,0.268020405,0.192268372,87.73534516
0.263674418,0.081604106,0.032363892,77.8182658
4.842620104,-0.330787979,1.048692346,48.02912781
0,0,0,0
0.578777565,1.607307394,1.594538331,2.966975124
0.385437545,0.223116485,0.000274658,89.38648566
0.393777825,0.17939953,0.083572388,89.68744079
0.422968144,-0.614178595,-0.763717651,55.06075254
0,-7.063000202,-7.063000202,0
0,-6.326000214,-6.326000214,0
0.240019504,-0.205490769,-0.297393799,84.12335683
3.527543764,0.212480007,0.261999995,87.24681249
0.172889617,0.070325474,0.071716309,82.94655074
0,0,0,0
0,4.026000023,4.026000023,0
2.834889981,-0.225566875,-0.05027977,44.37804058
0.159523416,-0.048273859,0.007629395,78.89870354
0.203349507,-0.050729297,-0.013092041,89.10720215
0,0,0,0
0.280645217,0.109172759,0.034645081,89.48651013
0,0,0,0
0.381809499,-0.428829921,-0.521743774,89.64176003
0.195935811,0.041757326,0.0650177,88.18500583
0,0,0,0
0.17039694,0.147723706,0.129486084,87.9043977
0.500481181,0.304168096,0.379699707,85.26780727
0.196078686,-0.087135662,-0.120826721,81.39979189
0.398312626,0.217248734,0.127120972,80.82328431
0,0.538711846,0.538711846,0
2.926953058,0.814902455,0.286705643,78.77859706
1.656357405,0.46628045,0.984046936,42.72164245
0.333995088,0.370416331,0.421142578,85.05433737
0.057460845,-0.660799682,-0.660799682,0.085338782
0.234168093,0.010121967,-0.016448975,88.1155427
0.484106675,-0.076162585,-0.023757935,88.31451675
3.03822245,5.22131287,4.57531929,14.84017673
4.551320634,5.827498632,6.338842392,74.03867911
3.161051541,0.385342331,0.325611442,89.91345322
0.196685866,-0.035965187,-0.057403564,88.5640792
2.582606905,-1.559761917,-0.751999974,46.57474881
4.150685176,1.357154773,2.463708758,81.15987484
0.192717212,-0.087057198,-0.030410767,81.14323705
0.250615628,-0.060657652,-0.086120605,89.75770377
3.820686674,3.205356039,2.73545897,86.570398
0.294986823,0.050611128,0.068138123,85.13002902
2.844218068,7.59661453,9.064723969,31.60444538
0.448761918,-0.27908885,-0.180183411,71.1006327
0.129500002,-0.210500002,-0.210500002,0
0.197562548,0.060630968,0.000106812,88.37833289
0.29818265,0.122467152,-0.009490967,82.36968985
0,-0.050827026,-0.050827026,0
0.307208227,-0.076338572,-0.06212616,88.33111263
0,-19.61330032,-19.61330032,1.600627133
5.151833434,-2.321178505,-0.960673422,70.96278534
1.028585856,2.201801716,1.946545422,11.2025868
0,-0.308861464,-0.308861464,0
0,1.204320192,1.204320192,0
0.448475724,0.168133236,0.25592804,77.83188256
0,-0.086502075,-0.086502075,0
0.172553693,-0.139721141,-0.061294556,58.86062998
1.361307661,-1.157906071,-0.978233337,87.5292857
0,-5.885000229,-5.885000229,0
2.077300798,4.906280878,4.362235546,51.99823493
0.337231333,0.174418247,0.012062073,79.76569729
6.674256844,1.228942871,0.413658142,54.16741637
0,-2.710319042,-2.710319042,0
0.31502459,0.191550442,0.105064392,86.39687388
4.160040514,-0.101981954,-0.588973999,68.70230861
0,0,0,0
3.701757404,0.689325694,-0.081402861,43.4379533
0.02865657,-0.385626221,-0.382606506,3.232366603
0,0,0,0
0,0,0,0
0.149991494,0.014206689,-0.000778198,88.4768772
0,0.067230225,0.067230225,0
0.810383399,-0.235479736,-0.546951294,76.3617522
0.391598247,0.099838327,-0.007369995,89.1666044
0.35140262,-0.024502923,-0.133659363,80.5933261
3.818829237,4.498571991,4.947617769,81.83588436
2.985156635,2.235390742,0.978061259,59.61372523
0.40982466,-4.371664103,-4.39109993,5.913679615
0.131641919,-0.004495934,0.03477478,58.97125999
1.949808535,1.543584823,0.89064306,40.99347807
0,-2.353500366,-2.353500366,0
0.874296312,1.626381236,1.775300562,7.850300222
0,2.75820446,2.75820446,0
2.971061236,-1.868702028,-0.966278076,89.77833996
0,-0.345962137,-0.345962137,0
4.109966998,-0.225837667,0.732027173,39.44863295
3.323664518,-0.071562216,1.987248063,54.77388628
0.28587042,0.355528231,0.362861633,83.35202687
2.56893602,0.5703695,0.076614454,49.90762165
0.794574741,6.391321421,6.203376532,1.720952017
0.500893661,-0.582201182,-0.945022583,7.596400962
0.586566662,0.500725226,0.613838196,85.20794464
0.715262072,6.390098011,6.335057735,6.995103228
0.344976245,0.056614467,0.021759033,64.1959971
0.03562013,0.030986023,0.028358459,8.129091817
0.284189908,-0.02751193,0.039199829,82.32513744
1.848749902,0.408312922,0.782539368,55.38985858
3.063413872,-1.156235799,0.272583008,44.5370993
2.343505759,1.546207025,1.24671936,84.34534712
0.238785918,0.165559273,0.135910034,89.90291731
0.277849948,-0.145969889,-0.12940979,89.95840319
3.753993987,1.942672973,1.513135433,84.32270994
6.607105588,1.739706676,-1.12291491,72.30279584
2.96825311,3.155220606,2.863465309,31.18812044
0.268996409,0.155246751,0.100143433,89.73260084
6.627863806,-1.294066,-0.821211159,60.27727208
1.444467804,6.007430102,6.198588371,7.676704624
6.61578051,0.6744998,2.157175779,89.97618618
0.303361597,0.111466471,0.009262085,67.83762587
5.172343468,3.743788165,4.545530796,79.32459272
0.230813984,-0.95931563,-0.967224121,41.80504252
1.362629797,3.298774611,2.633621931,15.31043252
0.426562839,-0.518037386,-0.755874634,24.75763769
0.117365059,0.132223075,0.037628174,5.12267231
0.257007457,-0.040385754,0.0209198,39.76216543
3.487011164,2.300547994,1.161187828,89.13222654
0.145553212,-0.95124575,-0.922637939,10.0654892
0.380852831,-0.516700878,-0.355712891,49.02216385
0.49598254,-1.596234639,-1.75592041,7.503691764
0.035535797,0.300547282,0.281097412,2.523375463
0.252745534,-0.041891892,-0.024665833,88.66456076
0.338273176,4.567538202,4.625597477,3.609192401
4.916244953,2.726436646,0.994821191,83.11577342
0.350425882,6.209362086,6.272808552,3.24227033
0.077215664,1.004430597,0.99256897,0.08145948
0,-0.129290834,-0.129290834,0
0.294488762,-0.454887108,-0.374130249,67.0991256
4.181829632,5.61955971,6.526593685,84.23946655
0.186392849,-0.144403698,-0.128860474,87.44108345
0.151916172,-9.562895079,-9.550476074,0.436205389
0,-9.536102295,-9.536102295,0
0.429525106,-9.698114014,-9.646240234,0.603391507
0.589278528,8.256956834,8.175003052,2.009114251
0.225694073,-0.198240153,-0.262435913,80.19818386
0.466869448,0.010788551,-0.076400757,89.90777962
3.861365571,1.06471328,2.185972929,58.45073625
0,0.058639526,0.058639526,0
0.283670105,-0.049602481,0.022872925,89.80010928
5.902869801,3.327129912,4.929811716,89.63805664
0.314321104,-0.365420134,-0.109977722,30.50531295
1.806354537,3.364546121,2.734178305,46.83014994
0.813949591,1.256955885,1.391031206,81.99880855
0,-8.978256226,-8.978256226,0
0.256875015,-0.113343561,-0.125061035,49.32969416
0.00957489,9.780311584,9.780311584,0.163860053
0.053393512,0.054175352,0.05531311,29.67282991
0.274590486,0.024990469,0.024765015,87.47709417
3.744230877,1.379658726,-0.114323139,52.44982572
0.422105704,-1.82252202,-1.965699673,0.588346783
0.269183502,-0.452524621,-0.385466486,55.53995642
0.250557605,0.317918921,0.287231445,89.90380526
0.032511737,-0.20865426,-0.212280273,4.68671798
0,-3.921702385,-3.921702385,0
0,-1.043871999,-1.043871999,0
4.290668279,0.2872001,0.59376201,52.07725297
0,5.765237808,5.765237808,0
0,-0.469277859,-0.469277859,0
0,-0.015762329,-0.015762329,0
0.208093863,0.127419702,-0.006278992,11.24151391
0.676599586,-3.777846448,-3.73267436,9.568482993
0.262327446,-0.168728129,-0.165138245,88.64742893
4.233853192,3.459937139,3.132908583,81.75571173
0.113538499,0.313533529,0.325454712,22.10659994
0.522281588,-0.678355309,-0.827789307,86.65969108
0.499716024,0.477959043,0.546707153,9.413774075
0,-0.100860596,-0.100860596,0
2.059773808,3.230008259,2.980872154,31.25626916
0.122104168,6.979097843,6.979097843,0
1.506963057,7.179093583,6.871358871,7.368509468
0.42057079,6.063109414,5.990292549,3.00115539
0,6.263231754,6.263231754,0
1.259446323,6.117983341,6.066906929,3.950033101
0.364952516,-0.418446547,-0.408149719,46.24799459
0,-2.865947008,-2.865947008,0
2.614617873,2.38622106,0.936132848,7.004448334
0.256971924,0.147729646,0.029510498,14.52070312
0.327694623,0.103139976,-0.057739258,43.85791661
0.269481459,-0.166002369,-0.282226563,67.23945243
0.1526085,-0.088922293,-0.083602905,42.39502689
0.698338758,0.453483549,0.925750732,76.37003197
0.225465475,-0.131560493,-0.092750549,72.83738138
0.284296515,0.009717903,-0.049728394,88.01314849
1.228873732,3.937564,3.541024327,24.97104544
0.175416028,-0.041850622,-0.022735596,86.06095038
1.412582793,5.390944123,5.295974255,9.220300226
0.394811406,-4.418896993,-4.358642578,2.436153294
0,0.501585245,0.501585245,0
0,0.920570552,0.920570552,0
3.139991387,0.561709026,1.162983477,79.84897247
1.999020691,-2.089681413,-2.554691315,44.94899692
0.010185174,-0.04222307,-0.040863037,6.583585993
0.425102478,-5.343658956,-5.458786011,7.113118923
0.485975761,-0.412845477,-0.03717041,84.49494961
1.618295026,0.920669088,0.653637022,46.8672124
0,0,0,0
0.439502433,0.700619384,0.986473083,53.06760556
0.55177537,0.18244025,0.039459229,89.91704116
0.515998662,0.415360697,0.550590515,71.18975249
0.542492849,-3.284456491,-3.265691042,4.390107149
0.406991555,0.232043197,0.023002625,41.85730067
0.439833212,0.098634388,0.009613037,75.71327842
2.796059401,1.561156961,0.305270046,80.60519107
3.693896502,-0.567064433,-0.171185419,85.30809441
0.503780968,8.866566583,8.90789938,4.154745971
0.622331543,1.537512788,1.651999176,43.49512623
0.247665074,-0.014132225,-0.013305664,72.02121767
0.261879995,0.084145748,0.045196533,83.71385925
0.211625437,0.125030134,0.204925537,89.73068405
0.354765069,-0.19620139,-0.058517456,59.40382888
0.237845796,0.922601515,0.988571167,30.550819
0.259061995,0.024028448,-0.005172729,89.43962407
0.185364927,0.067503202,0.067825317,85.10897142
0.063918747,-0.117373657,-0.113647461,7.858396292
0.40339559,-0.217141744,0.004776001,62.09774452
0.445793359,0.101820904,0.234855652,67.14993864
0.098226937,0.13407459,0.14478302,69.85744812
0.010918016,-0.618045028,-0.618133545,5.094076006
0.351889254,-0.045596511,0.030944824,41.40641289
0,0,0,0
0.139396003,-0.906167837,-0.887329102,9.726317244
0.717215695,-0.175593323,-0.05292511,82.66822286
0.139369264,-0.974562161,-0.994506836,3.230087651
0.395824194,-0.495024969,-0.532936096,62.31389957
0,-6.059909344,-6.059909344,0
0.186236631,-0.115334568,-0.072967529,54.35438467
5.088360796,-1.213446974,1.37666595,86.50137933
1.62796117,4.208996987,4.302511692,47.44978663
0,-1.00819397,-1.00819397,0
0.300849111,0.07962977,0.044281006,89.06962274
0.25109664,0.167898713,0.149345398,86.66602525
0.27839201,0.080183975,0.077941895,89.86399847
0.390184324,0.142674932,0.071151733,85.74428402
0,1.608952641,1.608952641,0
0.120688053,0.091390038,0.078292847,82.83662234
0,-3.581835032,-3.581835032,0
0,-6.610592842,-6.610592842,0
1.307318585,2.791833244,3.173611164,20.5899255
0,-0.438095093,-0.438095093,0
0.304127177,0.081370798,-0.035385132,72.74042494
0.26954517,-0.186638968,-0.106582642,38.86505896
0.432873283,-0.29883597,-0.252685547,89.56931028
0.27358152,-0.008091482,-0.048446655,76.14031585
0.51358085,-0.195113989,-0.040084839,39.9530754
0.254312538,0.099045411,0.037452698,87.91492785
0,6.332856655,6.332856655,0
0.345350595,0.515322192,0.50806427,85.86923419
3.675596477,9.831062185,10.56114578,88.38454062
0.286709861,0.017221187,-0.019210815,89.53153215
0.374972096,0.06818288,0.084152222,89.37981681
0.399633759,-0.025618297,-0.009788513,82.37145608
0,0.550666392,0.550666392,0
0.153587671,-0.073621563,-0.099311829,50.79443049
1.036918608,-0.450991381,-0.481249243,47.50165826
0,3.209427357,3.209427357,0
0,-3.471698523,-3.471698523,0
1.316808317,-8.095980002,-8.487704277,3.405859803
0.482680864,0.085239036,0.012245178,76.46892852
3.650757622,1.075355894,0.410618126,89.86727769
0.25645671,0.124137395,0.127029419,89.85493146
0.008872986,-0.805381775,-0.805381775,1.090528196
2.0332765,8.374917507,7.905653954,4.156670029
2.52573785,0.319109275,0.962469101,88.99693662
0,1.254561663,1.254561663,0
0.579120069,1.429522574,1.134851575,19.10762072
0,-0.588973641,-0.588973641,0
0,-0.023942016,-0.023942016,0
4.833425862,1.259885454,-0.023942016,85.99585352
0.390277518,-1.644679748,-1.608903527,15.82186239
1.215315016,-0.004611499,0.735855103,50.65781243
0.316377299,-0.090645088,-0.039009094,64.36036865
0.813594892,-0.632487587,-0.724268109,24.71574216
0.295284655,0.04206573,0.013061523,89.54990263
0.179370979,-0.077829488,-0.065483093,89.17260934
0.30986707,0.150232993,0.048545837,43.81627228
3.994174557,-0.830713154,-0.156221658,61.24672175
0,8.066065788,8.066065788,0
1.207804689,1.43568278,1.817254543,5.293326567
0.348456362,-0.181862042,-0.019989014,55.85715539
0.183146279,0.042291235,0.079772949,79.98948597
0.023306871,0.79909661,0.7943573,2.707802933
0,-2.920926094,-2.920926094,0
0.341649774,-0.48616953,-0.59376204,77.21286324
0,5.858790398,5.858790398,0
0,0.079971313,0.079971313,0
0.380415345,-2.831429462,-2.874326944,4.257211034
2.415554732,2.455000921,1.620874524,79.08228244
0.275518075,-0.014480181,-0.065376282,89.22106411
0.239829291,0.192764482,0.17754364,89.65158502
0.300165,-0.046595563,0.067611694,31.26615336
0.346703174,0.084795858,0.028213501,76.42288048
0.459628456,0.218998054,0.024291992,89.16736939
0.085393001,0.10397288,0.126495361,55.36982119
3.923131589,2.647121703,1.580221415,80.24381243
0.273110398,-0.035925989,-0.002990723,89.65279323
0.003094761,-0.213984634,-0.214202881,1.913782143
0.221653701,-0.149988511,-0.023773193,21.08793197
0.551937249,-0.222976296,-0.169815063,89.90845804
0,0.419692993,0.419692993,0
0,8.440155029,8.440155029,0
0,-1.394622445,-1.394622445,0
0.013667282,-0.059557879,-0.064422607,1.849354352
0.836645959,5.319804796,5.252878666,10.75283414
0.245317369,-0.119730881,-0.065177917,89.16994858
0.195630409,-0.008348915,-0.019569397,87.72290277
0.437369386,-0.015003674,0.015457153,77.23117059
0.568740365,-0.075085976,0.121574402,89.29143306
6.359059214,3.532039712,7.715904236,85.90774659
0.208040095,0.891576013,0.952896118,42.78600618
0.244655484,-0.474255646,-0.507232666,85.65803503
0.549499729,-0.212849579,0.012512207,78.42957295
0.684741735,3.251325846,3.251325846,0
0.259940788,0.47642205,0.367538452,42.949994
0,1.290481567,1.290481567,0
0.207390449,1.684318542,1.708259583,2.314415199
0.100653077,-0.950414446,-0.940185547,6.109726124
0.116991544,-0.94080461,-0.935714722,3.240914883
0.310203539,0.063907199,-0.009796143,88.75023704
0.105037436,-0.944415911,-0.962738037,7.54405006
0.175274838,-0.974884107,-0.963119507,9.277159234
0,-0.156295776,-0.156295776,0
0.17288977,-0.056926757,-0.025909424,84.78918305
0.270105338,-0.022952256,-0.009117126,88.23524512
3.141028519,6.032981176,6.196194172,85.25778796
0,-0.277727395,-0.277727395,0
0.027159242,-0.587005842,-0.584213257,4.655970869
0.276165508,0.043007776,0.02671814,89.53221714
0.135648105,0.107439125,0.126785278,89.0736466
0.445919887,-0.153471413,-0.01234436,61.83824372
1.713280414,7.02690163,7.249649048,88.88489148
0,-0.610290527,-0.610290527,0
0.24020917,-0.004620704,-0.036849976,88.20689574
0.104587064,-0.085208186,-0.094894409,89.85791254
0.164266506,-0.01382278,0.019561768,86.660912
0.309878019,-0.694145457,-0.804855347,44.28194587
0.163968627,-0.036494689,-0.014465332,88.46724449
0,2.432508945,2.432508945,0
0,-0.612915635,-0.612915635,0
0.390058319,0.088198694,-0.008087158,69.07156578
1.864699666,1.193110518,1.194706678,83.63259759
2.947837593,0.978541462,2.097320795,40.21588372
0.611548463,3.006638497,3.107673883,5.878251908
0.315223694,-0.315223694,-0.315223694,0
0.035681441,0.911053467,0.9190979,1.400673326
0.21602099,-0.011223912,-0.023536682,89.14104766
0.26470975,-0.07800069,-0.109375,89.49237503
1.061603006,-0.40138087,0,42.79645201
0.315655731,0.147629128,0.245193481,89.81696774
0,2.743755102,2.743755102,0
1.086793849,2.370259672,2.633621931,23.33903896
0.692494751,0.442889585,0.864509583,77.14370293
0.123394292,-0.02554512,-0.017303467,88.94007783
0.095786466,-0.137881898,-0.16645813,5.615984505
0.535943132,0.04891041,0.065612793,39.27109005
0.617909409,-0.229809774,-0.112854004,86.26131543
3.367197884,4.031598512,4.772841215,84.90715213
0.85831675,1.478744021,1.346779585,13.31627156
0.326539509,0.242141941,0.323440552,74.13483864
5.661952592,0.702144284,-0.524032593,89.0527979
0.195623463,-0.452037869,-0.48878479,42.3485021
0.395268939,-0.02109889,-0.023101807,89.2744793
0.167449519,-0.028883034,-0.090820313,89.65159161
0.518123701,-0.128124487,-0.000518799,42.48729022
0.208251843,-0.760013868,-0.765060425,64.99002324
0.099330571,-0.106777487,-0.109176636,57.58446064
0.560358942,-0.470227244,-0.471084595,87.38717211
0.348170885,-0.174100402,-0.01600647,67.74112285
0,-0.329202741,-0.329202741,0
0.026885393,0.331914266,0.318328857,3.197288728
0.315145607,0.330669551,0.410186768,87.61487765
4.952721968,0.781934873,0.132878199,88.70859104
0.78874737,-1.703906107,-1.503604531,9.127724933
0.31020681,0.065330531,0.010131836,89.30401636
0.103988469,-0.042685305,-0.050247192,45.68437053
0,3.538630009,3.538630009,0
0.663397068,1.498739954,1.651999116,21.02761223
5.278652276,4.577407087,5.221913338,78.06589006
3.925252521,2.861238066,0.976834327,82.80979392
0.473087186,-0.179142009,-0.047714233,88.49159084
0.183066873,0.923135505,0.932693481,21.86231282
0.258986539,-0.504715488,-0.369987488,14.74312024
0.576475362,0.252406465,0.363067627,67.65880254
4.059375874,3.025032566,0.852335781,88.22500766
0.386777719,0.4143506,0.466941833,84.69876298
0.065478227,-0.026447296,0.005264282,2.779688967
3.704150958,1.593051019,0.912190855,59.9360582
3.624918102,-0.674793716,0.25020171,83.07554959
0.510553873,-0.234101227,-0.306854248,82.86996521
0.375336762,0.046178054,-0.030136108,53.48035647
0.128656764,0.014556387,0.043380737,86.07059337
0.227336919,-0.003152504,0.045166016,84.82429932
1.536733303,-9.975888792,-9.998186111,3.365054618
4.356937848,-8.101973234,-10.16218901,48.64885658
0.464871999,0.280793628,0.346588135,82.78763143
4.62375853,-3.182770763,-1.73944068,85.07311237
0.168998578,-0.033106706,-0.024475098,89.50062154
6.332912197,-1.355522587,0.569221452,55.10912814
1.067244727,1.871956425,1.67479527,37.1935827
0,-0.006866455,-0.006866455,0
1.986739685,8.466314357,8.169015884,18.18429671
2.361807906,0.926524131,0.222660758,57.5175245
0.262866094,-0.82027772,-0.944358826,16.03348208
0.111280226,-0.922478508,-0.893264771,8.496603026
0,-0.612548828,-0.612548828,0
0.20041489,-0.1443295,-0.175178528,89.65689912
1.585647418,1.585428678,1.699883223,18.08649207
0.217820837,-0.044131148,-0.055091858,89.64483471
0.039893778,-1.013305664,-1.01789856,0.104097439
0.246354265,0.953953057,0.919799805,20.02404672
0.479207218,-0.261536924,-0.013000488,71.61505181
0.903614011,-1.098529811,-1.139639974,12.23666447
0.124631952,0.045617845,-0.006065369,33.94427099
1.713466297,1.14397049,1.196121216,77.71085911
5.164338306,0.605680398,-0.4668836,49.55954381
0.4818236,-0.017757519,0.208328247,89.07143676
0.172378738,-0.029147066,0.003494263,83.79178578
0.295112656,0.405296563,0.277542114,38.1970027
0.414070751,-0.196356391,-0.090011597,71.02874454
0,-6.21999979,-6.21999979,0
0.193465124,0.006575346,-0.005821228,33.88792534
0.105728619,-0.042944148,-0.062698364,89.93883696
0.12060155,-0.786200365,-0.72227478,11.1742531
2.049268942,0.115231152,0.635999978,44.30866566
0,1.800439715,1.800439715,0
0.199602479,-0.099837222,-0.005661011,41.55877602
4.016287594,-1.223999988,-0.258500002,57.5073342
0.364509675,-0.35007364,-0.327758789,69.43266307
0.0893557,-0.229974365,-0.246200562,9.409112937
0.308071744,-0.076865402,-0.015167236,85.65872917
0.278347751,-0.055743775,0.002204895,80.60088895
0.12262658,-0.028598659,-0.017913818,60.81343525
0.113826901,0.111345927,0.104881287,40.46800102
0.332572205,0.037436849,-0.014282227,86.88210161
0,6.768408298,6.768408298,0
0,3.315969467,3.315969467,0
1.532388432,1.536652834,1.492830336,42.71964841
0.41681508,-0.606235002,-0.632568359,81.42708207
0.59705883,-0.585849119,-0.58300592,6.895995032
0.361678772,0.103114125,0.047012329,84.57553069
0.936028545,0.421842209,0.302770987,23.70008324
2.656831422,0.578975556,2.120130301,35.62929606
1.608836844,1.259009893,1.491633177,36.09453902
0.299921969,0.04768854,0.006378174,86.31519365
2.849441573,1.062755776,1.537077546,84.40759922
0.250970561,0.041507744,0.069358826,72.23184266
0.478730917,0.38408663,0.115524292,76.19319262
3.462934856,-0.677610653,-0.36153549,84.02876585
2.621620671,0.715152259,1.335964561,82.23547943
0.4297436,-0.400403659,-0.132736206,42.94239993
0.214958191,-0.416145325,-0.416145325,0
0.279080072,-0.04190972,0.050521851,65.08514094
0.234805454,-0.219718636,-0.256057739,66.79932151
0.446913098,-0.556240238,-0.767593384,82.82377431
0.758839815,0.884699698,0.99601835,13.37944217
0.138495184,-0.866476579,-0.8960495,7.738197773
0.135552661,-0.009739147,-0.010299683,58.57732689
1.80853763,2.217030784,2.700659513,38.09147793
0.782317844,-0.019521958,-0.278924495,25.99900904
2.588527065,-2.123950789,-2.253012657,79.80233905
3.412318357,-3.301141598,-1.416213512,48.66994254
3.581862797,-0.221584985,-0.437540367,89.87817608
0.422295489,-0.108397744,-0.26990509,49.34316492
0.396538209,-0.719323607,-0.873245239,35.26240958
0.215953241,-0.94993277,-0.956344604,35.19748924
0.520115129,-0.508483785,-0.693710327,31.45962739
0.150115883,0.958829278,0.966812134,16.75280099
0.359065703,-0.738095519,-0.839866638,46.75861931
0.255155129,-0.608124026,-0.641387939,49.69612402
0.244171648,-0.040381783,-0.081985474,86.54121324
2.358131367,3.887978168,4.435577393,86.06223056
0,0,0,0
4.379041839,3.041630396,2.952140808,81.23534997
0.679697475,-0.232383456,-0.229850382,8.586120446
4.323466619,0.222896237,-0.459686726,71.98793345
0,-0.806870639,-0.806870639,0
1.701155008,9.569246016,9.426259995,9.184870028
0.311778506,-0.072271421,-0.078277588,89.92968256
0.282199516,0.066325477,0.048446655,89.82930125
0.333858191,0.065027727,0.0262146,89.96318959
5.274356629,3.054900563,4.951209068,75.85599879
0.135226798,-0.030406851,-0.021591187,88.0666089
0.115759226,0.114961018,0.110229492,85.9856545
0.374623763,-0.81415015,-0.884414673,11.49997616
0.512769466,-0.041707899,-0.037200928,89.36425829
0.195467567,-0.225207741,-0.33266449,47.58988771
5.569072355,2.76766768,2.406246185,87.11366235
0.412237553,-3.006081926,-3.035847664,0.299321157
0.467429155,0.530027511,0.653282166,8.973831757
0.846043633,-0.500621099,-0.495614886,15.32359097
4.167386274,3.419138438,1.386285126,82.75491794
0.478612829,9.7050457,9.631874084,0.765680826
0,9.856933594,9.856933594,0
0.513899248,-9.016565074,-9.129089355,0.875044957
5.725924375,-2.67594154,-2.092529297,80.75496863
0.073335683,-0.033960522,-0.010284424,27.49947457
0,8.537597656,8.537597656,0
5.239935141,-5.715007548,-7.053314209,89.55954026
0.528760514,-4.153057901,-4.229357243,3.620917445
0.531403779,8.973269145,9.06085968,1.493073725
0.199713143,-0.116781002,-0.1277771,89.87640003
0,8.655303001,8.655303001,0
0.258913287,0.081609168,0.102203369,78.30921123
0.317875403,-0.23715507,-0.183990479,85.98376503
0,-1.422199249,-1.422199249,0
0,-4.704750061,-4.704750061,0
0.17273685,-0.150915478,-0.132377625,86.95434485
0.190731138,-0.638632904,-0.701522529,0.360010954
4.581955844,-1.24634259,-1.956122518,88.92880708
4.963088661,2.323733543,5.621585369,41.62491872
0.089529365,-0.007743188,-0.003723145,29.57510968
0.249385522,0.069483304,-0.008590698,58.05418718
0,-0.926584363,-0.926584363,0
3.238947689,-2.07342903,-3.754104614,43.15227396
0,-2.171539307,-2.171539307,0
4.614527712,5.435400573,6.414262295,41.79277805
0.411678677,-0.373005195,-0.259429932,88.71588632
0.219608078,-0.119316231,-0.098815918,87.84911119
0.315191501,0.034784704,0.091621399,89.04272898
0,0,0,0
0.242302744,0.062330363,0.125457764,86.57256499
0,2.032739401,2.032739401,0
0.975702155,8.72421363,8.790579796,4.565742605
0.207846053,-0.036152675,-0.081970215,87.80044108
0.227789939,0.264830039,0.333457947,30.16495323
0.275320734,0.142318943,0.066223145,87.81482264
4.856382852,5.943495984,9.342460632,25.77141936
2.60587274,-0.938693848,-2.074639082,47.47128143
0.127240312,-0.796822198,-0.743255615,7.722603082
0.279060172,-0.259725476,-0.287399292,85.92202566
0.212439404,0.113612864,0.094322205,89.66959037
0.24593789,0.335133496,0.440040588,79.06775705
0,5.185841084,5.185841084,0
0,5.219359875,5.219359875,0
0.023476143,-0.011260986,-0.009468079,2.087461185
1.549211503,0.853531471,0.574607849,42.44187267
0,6.629746914,6.629746914,0
0.331033466,0.099467128,0.022827148,67.95369037
5.482678218,1.117411894,-0.067039695,85.37426989
0.322361575,-0.062113204,0.066413879,87.77274267
2.357787016,6.26246518,7.184021473,17.41249749
0.376085185,-0.740568617,-0.687278748,45.04021
0.449253159,0.187844849,-0.084991455,70.9310948
0.25024305,0.138165474,0.144622803,88.54244548
2.796590291,8.558001676,9.147326946,30.34719142
3.411460064,-1.952738082,-2.000999928,85.25778767
0.255536685,0.156508736,0.126808167,82.92805582
0.173099192,-0.073772287,-0.148086548,84.54060336
0.210833725,-0.013025701,0.001365662,88.16676769
0.353562557,0.019487768,0.003692627,89.11131953
0.284305128,-0.115241611,-0.182556152,86.04042457
0,-0.273880005,-0.273880005,0
2.022569238,1.910044574,1.532289028,35.90073975
0.191045485,-0.552020424,-0.564712524,28.63093798
0.514972886,0.402704839,0.625480652,41.0512716
0.177052854,0.053318944,0.009300232,26.27243153
0.334574993,-0.543846558,-0.635612488,27.59251552
0.351856427,0.13131626,0.015213013,80.40079518
4.243999157,-1.365277927,-0.349553436,89.25574787
0.211680861,0.027268817,-0.044761658,87.64678901
0.077671534,0.001119753,-0.000442505,40.96407631
0.199761435,-0.108410913,-0.112678528,89.27884849
3.214739518,6.580427586,7.146910191,78.51831093
0.386033834,-0.176274004,-0.185379028,89.17581082
0,-0.391967773,-0.391967773,0
2.596883627,-8.402231828,-9.567230225,14.38623681
0.286515145,0.398746626,0.46937561,51.56846031
0.048160115,0.013027892,-0.002944946,2.469178597
0.165401797,0.03779314,0.049926758,83.09433376
0.168461024,0.025364478,0.028160095,89.05115741
4.688669313,-3.164205207,-0.697931096,73.46218976
0.33978335,0.026114914,0.02960968,84.3363117
0,1.916558504,1.916558504,0
0.894763383,-0.193019301,-0.181964889,15.89139619
3.477601055,-0.336554837,-0.263370216,61.24960004
3.418828843,-2.531141469,-2.921524644,65.14566758
0,-4.096604347,-4.096604347,0
0.208673052,-0.120529635,-0.031402588,88.70104066
0.162344068,-0.056199956,-0.073532104,86.70641295
0.4786552,0.025941594,-0.191627502,57.70787418
0.223656907,0.361368605,0.360351563,49.91862994
0.318068293,0.08734498,0.109458923,88.89163313
0.172347439,0.073362211,0.091453552,39.41151942
1.747013039,-0.228532608,-0.0285,89.18419724
0.131354398,0.106912542,0.144012451,37.60071713
0.178100833,-0.022168124,-0.011901855,67.92719191
0.264923542,-0.071808941,-0.06413269,89.98153447
0.317490989,-0.082128804,-0.03288269,64.14094236
0,0,0,0
0.786895211,-1.001984392,-0.988835514,14.5567901
1.171399447,-8.546212836,-8.696000099,2.355953469
4.6954096,-0.145095175,1.053448796,89.38979588
0.372660292,0.299163719,0.376899719,89.98005689
0.320529479,0.093060017,0.027336121,89.86208861
0.289485596,-0.314672309,-0.237243652,33.17859601
0.075787272,-0.156663818,-0.132446289,12.25915656
1.600255135,0.990033907,0.900219858,51.25385387
1.368121564,1.511394236,1.613691926,47.4517877
0.27992664,0.130822496,0.084457397,87.45452589
0.245361469,-0.036451176,-0.005775452,89.74674002
0.485761172,0.255479675,-0.045852661,78.23860704
3.317247185,4.418124752,5.801327944,56.72027481
0.068397608,-0.008545087,-0.003410339,44.2783546
2.782204169,-2.386951346,-3.11964488,45.38806712
0.427675235,-0.443265336,-0.465499878,85.11368965
0.548825696,-0.095724637,-0.044052124,79.54854368
0.167335667,-0.041883534,-0.023742676,89.19972347
0.157782378,0.0350525,0.008621216,42.72857874
0.315014998,0.377938222,0.479736328,88.75375445
0.15520907,0.004543483,-0.015655518,88.37147268
0.368806691,-0.205198665,-0.131286621,89.51416556
5.331331041,1.941405578,1.292868912,89.44519726
2.172771151,1.098203929,1.010383964,50.23844376
2.840856031,0.049737319,0.842784733,83.41814138
0,-5.897099018,-5.897099018,0
0.090546355,-0.005291931,-0.009963989,89.65401863
0.060694824,0.011237915,0.016708374,38.37840715
0.186787042,-0.203226365,-0.212036133,69.11826629
0.075966956,-0.003606278,0.003555298,20.89269056
1.710133638,-0.363772723,-0.100500001,78.30206633
0.781371957,-6.706021649,-6.632141113,8.968952108
0.429644578,-0.127000907,-0.083084106,89.32158216
5.295900468,-1.97501484,-2.534339905,89.834559
1.7064518,-0.049583142,0.426167905,27.97367476
0.250555587,-0.063023326,0.017929077,83.37542773
0.976218571,-6.035782667,-5.80851078,12.61023998
0.371905571,0.036365941,-0.014709473,89.17576175
0.31826046,1.788004927,1.747820616,15.50937266
0.492933389,-0.149097524,-0.065979004,86.48504184
0,2.213439465,2.213439465,0
0,1.74657011,1.74657011,0
0.267706303,-0.051398141,-0.047317505,89.6988786
0.203629479,-0.061471706,-0.022903442,89.68284998
0.133855957,-0.220998752,-0.256057739,17.88933306
2.417087553,-1.205716913,-0.335548401,55.59848857
1.364731841,1.511040539,1.826775849,6.011136233
3.674867439,7.725047873,9.237112522,9.004523555
0.707258885,0.096440049,-0.023269653,84.61268462
0.023106838,-0.0020207,-0.001586914,4.262765988
4.367287912,0.502558271,2.428991795,56.65924316
0.37336344,-0.102123392,0.003555298,86.8724055
0.138870239,4.321533203,4.321533203,0
0.170576763,-0.1239612,-0.131317139,72.26526885
0.277944283,-0.222093788,-0.238388062,81.42669064
0.453517445,-2.402253584,-2.415756226,5.818249369
0.20009969,-0.011210477,-0.038978577,87.34833508
0.303287378,0.108984705,0.029785156,73.26789595
3.392288601,-0.857484464,-0.471672148,89.30467493
3.557144235,-0.910993704,-2.246958256,77.67144801
0.481570079,0.057946308,0.009857178,87.29535381
4.749302161,0.239199428,0.184359163,80.07532488
0.297406115,0.140719875,0.00894928,84.55877443
0.037744652,-0.014490763,-0.014663696,19.53980313
0.3429104,-0.051881942,0.023773193,88.82324763
2.54493714,-0.593432599,-0.462095037,88.73225557
2.535038247,-3.98258719,-4.676018715,59.49984929
0,0.411560059,0.411560059,0
0,-1.247379065,-1.247379065,0
0,-1.874659896,-1.874659896,0
0.222558651,-0.074243171,0.003059387,40.40987202
0,0.142454997,0.142454997,0
0.44662409,-0.106037449,-0.274505615,17.63317814
0.305801433,0.051464858,0.033248901,74.85673612
1.970446659,0.966213724,1.680780888,36.43454128
0.234377149,0.203601876,0.198242188,78.10135214
0.505967723,-0.4848168,-0.489372253,43.03987015
0,5.164450645,5.164450645,0
0.167007366,0.090517358,0.048309326,30.13818007
0,3.112457275,3.112457275,0
6.470499387,-2.762353149,-1.961685181,75.70052794
0,0.492000014,0.492000014,0
4.818538794,2.018510472,1.405439317,64.17004985
5.222718351,-3.702349414,-7.098209381,87.04409724
5.907552512,4.484032447,2.571451187,42.15548391
0,-0.512000024,-0.512000024,0
0,6.154342651,6.154342651,0
0.221670372,0.050419758,0.081451416,88.96887255
0.337629119,-0.529523202,-0.7447052,84.1901367
0.429584299,-0.058501322,-0.178207397,72.59884687
0.265305272,-0.23610737,-0.186569214,56.44933719
0,1.981201887,1.981201887,0
0.111709955,-0.038021134,-0.030944824,27.76648589
2.146986276,0.074959224,-0.328015655,50.89173068
0.157102075,0.3616331,0.364257813,80.21405085
0.272483405,0.18072916,0.03364563,58.90517027
5.99301709,-2.985373375,-3.531555414,89.10828329
0.179589458,0.109371358,0.104431152,44.16690681
0.287763879,0.029894148,0.109397888,87.86750629
0.09781885,0.264310201,0.272445679,72.76430916
0.449200811,0.56424828,0.660499573,78.52298188
0.310282949,0.363843214,0.433349609,87.54728155
0.1460972,0.032327265,0.024154663,84.86577375
0.34363599,0.346586911,0.581634521,74.93808417
2.710965506,2.342734976,2.169146776,68.64945825
0,-0.995407104,-0.995407104,0
0.263998007,-0.227229664,-0.246940613,75.95111011
0.224515652,-0.449190406,-0.481750488,60.61827999
0.222402656,-0.21971757,-0.234954834,43.13242821
0.258818337,0.370127106,0.418807983,85.65543427
0.183758202,-0.112248739,-0.070770264,48.71081329
0,-1.556231141,-1.556231141,0
0.265382289,-0.082696279,-0.168296814,88.86551459
0.48544845,0.440408135,0.430633545,86.522457
4.676557481,-0.066868713,0.410618126,77.69653877
4.759861218,-1.420014473,-0.460897923,89.26955971
0.268702383,0.18223252,0.024429321,63.41530072
0.256950485,0.438678325,0.484375,89.375574
0.397949637,-0.312134884,-0.203659058,53.29199703
0.131655046,-0.930241228,-0.997428894,9.668599998
0.245860376,0.012673578,0.028518677,85.90979584
0.224828858,0.114523725,0.165496826,84.51046076
0.132325364,0.053275593,0.039428711,88.90195217
0.195318957,-0.099249432,0.006362915,82.0166016
0.424290541,0.063769192,-0.143531799,69.86489634
3.795223252,-1.418647732,-0.776942164,71.70024717
0.31828458,-0.10807842,-0.179542542,86.07066608
3.093684201,-1.83967787,-0.270553052,89.47225785
0.140396358,0.043514717,0.042633057,36.20492577
2.823408176,-3.878942809,-1.647261024,31.32830922
0.174334657,-0.004354177,-0.009567261,77.95406262
0.345086493,9.636319842,9.643844604,0.134239263
0,-0.084014893,-0.084014893,0
3.512137835,-2.023018968,-1.031932473,54.69641827
0.235577347,-0.015859014,0.003479004,75.75694464
0.199259362,0.558732067,0.604187012,45.3393833
0.265998639,0.40707287,0.550491333,51.18325615
0.215663561,0.090476732,0.048294067,88.98888617
0.376324576,0.429451252,0.51335144,79.75071292
0.280403868,0.482798166,0.654281616,89.36318239
0,2.741444588,2.741444588,0
0,9.250595093,9.250595093,0
0.695742249,0.242912057,0.102539063,76.53139688
0.381359372,-0.208522672,0.008224487,79.94237293
0.396111422,0.122083007,0.09601593,66.47517529
0.409518456,-0.578663616,-0.714645386,87.74866504
0.17330545,-0.273453681,-0.353515625,54.02645302
1.313000517,-0.239742606,-0.185012817,45.2776237
0.170359988,0.147311245,0.145454407,86.21719937
0.339579887,-0.086470572,-0.029525757,86.51319777
0.220759942,0.090320456,0.076980591,86.65606864
0,0.048034668,0.048034668,0
0.37725161,0.427165985,0.60723114,87.54128788
0.195782511,0.180401786,0.204368591,89.8239295
0.184600052,0.157957259,0.199272156,89.22248597
0.131551656,-0.163684476,-0.246200562,13.57736558
0.496323882,0.364870352,0.237266541,89.24953839
0.244816766,0.457386951,0.580673218,89.94647195
0.02777822,-0.063405355,-0.076202393,8.193918515
0.017153339,-0.702632016,-0.704528809,2.863638916
0.006302327,-0.094962848,-0.095397949,20.41068777
0.228201509,-0.026508404,-0.003036499,87.3848823
0.143380876,-0.129402758,-0.14315033,60.37640175
1.287817769,-0.854870114,-0.706311047,50.77529257
0.248147117,0.101863363,0.045333862,87.69480797
0.21706877,0.18608355,0.181945801,49.73104914
1.469327486,0.355338554,-0.243018895,39.45945418
4.008833403,-0.25804852,0.589572161,66.18509196
0.219773749,0.190489461,0.059768677,76.87654554
0,-0.258573771,-0.258573771,0
0,0.509980559,0.509980559,0
1.71069385,7.984264691,8.46376133,26.49444272
0.11371763,-0.131722091,-0.160766602,80.6613448
0,-6.4793396,-6.4793396,0
0.406502366,-0.290834993,-0.069061279,79.01108445
0,-1.789665818,-1.789665818,0
0,1.734599113,1.734599113,0
0.883594432,2.057084835,1.984853864,15.45770062
0.42218001,0.172435386,0.007720947,88.360325
0.031387904,0.006773812,-0.003952026,2.219377011
0.150934921,-0.209893104,-0.131164551,21.07086453
2.778164922,-0.084291663,-0.771000028,45.2217061
0.109892709,-0.065947948,-0.040390015,56.71627436
0.26576165,-0.099997273,-0.041442871,73.11039309
0.252197532,0.068175975,-0.013710022,89.70019733
0.017192075,-0.090365046,-0.081939697,8.552812799
0.073829944,-0.014906902,-0.019142151,29.12743696
0.070295343,0.083053128,0.067550659,20.02299344
0.016322049,0.035923312,0.026313782,19.27709132
0.21881455,0.011576235,-0.007232666,59.68730653
0.230858801,0.094194114,0.049827576,87.13996456
1.369095854,-2.067635866,-2.075836182,48.10076709
0.225483251,-0.04731782,-0.00213623,72.88989954
0.311892659,-0.082236008,0.019798279,88.35127252
0.090781763,-0.161521912,-0.198951721,14.74974309
0.216139508,0.035936963,0.003921509,61.58705137
0.290262039,0.347579188,0.44682312,70.1946749
0.18049785,0.054728448,0.05682373,88.63728147
0,0.579396784,0.579396784,0
4.512261013,-5.07050056,-8.245882034,88.51631395
2.359175101,0.250334625,-0.394393921,78.10115098
1.213885993,0.214253935,0.445495605,81.97437928
0,0.08656311,0.08656311,0
5.60677077,0.609966502,0.498138428,58.87667232
0.007284491,0.979806125,0.98033905,0.065692467
0.036422724,0.014394548,0.02217865,3.559979708
0.356627209,0.241060386,0.421287537,68.96668232
0.115369262,0.001197645,0.015136719,28.10908236
0.240191859,-0.608617925,-0.688079834,24.07090195
0.125085522,-0.489751642,-0.447372437,13.67165638
0.377664121,0.248052272,0.152740479,86.05904142
0.363824194,0.329585289,0.222793579,83.9753929
0.380461324,9.328017512,9.313729286,1.168941881
0,0.061904907,0.061904907,0
0,0.074768066,0.074768066,0
0.294262727,-0.216418548,-0.198440552,88.88994283
0.564967363,-0.103814717,-0.469863892,75.88820868
0.189019355,-0.181166805,-0.212905884,75.47016948
0.166318623,-0.004077113,-0.009521484,88.7380388
0.183538196,-0.209132182,-0.216499329,89.94100145
0.353750057,-0.155874332,-0.023139954,88.95211353
0.204310907,-0.079657482,-0.115348816,73.39506969
0.208775424,0.206093609,0.243728638,88.98970186
0.199071058,0.976628808,0.948532104,6.804254638
1.636290368,9.930925207,9.850046158,3.10230548
0.23428672,0.048474604,0.040603638,83.70082727
0.122577789,0.06562416,0.012680054,59.27032627
0.309393514,-0.106533255,-0.080993652,87.04894661
0,-0.684341431,-0.684341431,0
0.236939632,-0.19173682,-0.23500061,87.74890266
0.268878716,-0.105119873,-0.056472778,89.50372892
0,-9.581888199,-9.581888199,0
5.335055191,-0.899034222,-1.529941559,80.56633255
0.206668099,-0.179726642,-0.192840576,86.32899599
0.184247476,-0.006332252,0.002761841,89.72294689
0.265491799,0.303980456,0.3568573,73.93701941
0.328945606,-0.146364987,-0.100357056,88.61368833
8.304246386,4.654469808,10.52645874,81.42411847
3.828383162,1.695866571,0.024353027,74.14318584
0.031773485,-0.163088481,-0.150970459,0.078974712
0,-1.532289028,-1.532289028,0
3.107844908,4.898216012,4.517578125,60.0215439
0,0.828393817,0.828393817,0
2.116040603,-0.261239905,-0.542648315,58.6812285
1.430254758,9.569209892,9.598648071,80.2501697
0.740200641,0.181067704,0.058677673,89.02151885
0.391795329,-0.124615802,0.017700195,89.16017159
0.05415879,-0.113806812,-0.122108012,5.039397916
3.350332612,-0.238897775,0,88.11594197
0,-1.628057122,-1.628057122,0
0.359013715,-0.11688757,-0.079788208,89.31307458
0.215851224,0.031791242,0.02897644,88.77849827
1.91271743,4.29969505,3.567469358,22.5924164
0.24117807,0.21406195,0.119277954,76.34922269
0.111293958,0.116171649,0.104278564,13.50800916
0.19995916,-0.87283971,-0.974533081,27.2531005
3.654328921,5.974126782,6.794951916,85.98097531
2.418792804,1.780812504,1.60799998,63.02324019
0.236060709,0.214618585,0.17325592,53.23507931
3.258820677,0.319091059,-0.565031588,43.43468627
3.941284074,1.336322876,-0.756567717,28.99166494
2.194846345,0.392068679,-0.076614454,16.65353195
0,7.335834026,7.335834026,0
0,0,0,0
0.306637796,0.042307473,0.027954102,87.44890681
0.25597598,0.866463433,0.859268188,39.04305799
0.16774225,0.019948056,0.011856079,89.84783774
0.419486929,-0.098524237,-0.032104492,89.81577596
0.191774765,0.018840259,-0.08757019,31.7686979
3.620165314,1.07771792,-0.153228909,40.58281551
2.663951401,0.507987155,-0.057460841,42.93789381
3.522686,0.876097809,-0.258573771,39.44932922
0.150704388,-0.06940794,0.009841919,19.52048859
3.968807024,4.900823074,7.450755596,23.72459338
0.313594973,7.791987428,7.84340477,3.849369905
0.240756109,0.164310833,0.278877258,88.15062873
0.290332325,-0.675299723,-0.698287964,24.90286185
0.276681311,0.237186448,0.281646729,56.25054717
0.312391379,-0.085075107,-0.064239502,89.31945633
0.010071771,-0.54013956,-0.53894043,0.879647038
0.313845542,0.227002582,0.140670776,77.95369232
2.026014236,-0.195656587,0.028731298,82.9960965
0.870389866,-0.036088719,-0.416702271,46.93963481
2.953942968,3.812335269,4.285621166,10.19238589
0.299558214,-0.492311005,-0.421905518,31.44892282
0.698739251,0.094551962,0.124498487,44.79489786
0.334826965,0.145481908,0.208435059,87.69442386
0.206233773,-0.002307081,0.08706665,49.0048929
0.421927056,0.23517771,0.344314575,87.85880681
0.486767043,-0.67775024,-0.973297119,26.68589972
3.335195963,0.21842937,1.53591156,86.93736765
0,2.942473888,2.942473888,0
0,-0.197723389,-0.197723389,0
0.342969851,-0.634939092,-0.725097656,69.52641286
0.105344772,8.599972725,8.599972725,0
0.234210725,0.07855844,0.097885132,89.64311381
0.298914207,-0.223983358,-0.10660553,49.65119893
4.660621577,3.367640565,5.774814367,67.7273172
0,6.770802498,6.770802498,0
1.611564323,-0.697390297,-0.560243189,56.16487008
0.700157921,1.784333229,1.735796213,22.12117092
0.138863564,5.310339451,5.310339451,4.780184041
0,0,0,0
0.08140564,9.447808266,9.447808266,0.200056992
0.028974606,0.052636164,0.058654785,13.55889739
0.031819596,-0.766400424,-0.768547058,3.100872495
0,6.215347767,6.215347767,0
0.160830302,-0.114333437,-0.122444153,89.09243517
1.907637865,-0.780384827,-1.110909581,37.66478785
3.110320195,0.258871884,0.40223816,81.19894956
0.178325533,0.058024207,-0.004699707,26.70052807
0.012927882,-0.840198635,-0.841506958,0.057191026
1.667356878,3.05329896,2.348783612,37.55922807
2.400965469,-0.044519198,0.095768064,87.6587334
0,1.884294271,1.884294271,0
0.274079319,-0.056146099,-0.159851074,85.72461279
0.389143975,-0.149164527,-0.019104004,47.709031
0.039775664,-0.518646646,-0.519607544,12.07800732
0.28579818,0.154047368,0.125198364,78.30389693
0.424175803,-0.321545016,-0.171630859,71.91090486
0.45778654,0.20914213,0.069488525,89.43921063
2.80122065,1.500670412,2.427720547,88.74113987
0.365571998,0.082139549,0.017730713,89.75017311
0.313164355,-0.076264531,-0.02179718,87.89923499
0.369545806,-0.282018593,-0.029510498,83.9987386
0.283120852,0.231559806,0.294006348,89.64939651
5.62833519,0.051714076,-2.129707456,79.31581883
0.393774973,0.172072923,0.043075562,88.20157794
3.490621454,2.070009033,0.088588167,36.93560981
0.136745906,0.006021612,-0.011169434,63.65235917
0,0,0,0
3.631489283,1.22977466,-0.344765052,21.52375652
1.459887026,-0.341862981,-1.024718285,5.740638064
0,0.814028561,0.814028561,0
0.182224667,0.011289208,0.01852417,43.38560317
0.112530708,4.661653042,4.661653042,0.333743771
0.664894304,0.57829367,0.659347534,79.71816747
2.278233642,0.803728146,1.167208999,27.31352115
0.267971622,-0.140659156,-0.144561768,82.93929799
0,-6.361588001,-6.361588001,0
0.397132471,-0.075432329,0.051269531,86.57541234
3.464292057,3.95402412,2.296039343,38.73173435
0.285162916,-0.084904938,-0.011978149,87.18572196
0.209609628,0.024584248,0.010238647,89.85006813
0.657240186,-0.595188542,-0.478854954,55.14469
0.172699708,-0.008719833,0.010604858,86.04869252
0.36621715,-0.013390446,-0.046836853,89.78216631
0.602264163,0.316214146,0.319854736,88.38989729
2.811736844,-1.108452158,-1.37790519,67.15116454
4.242970479,3.081896743,1.489238977,86.39134263
0.141756527,0.146666336,0.149116516,86.04182504
0,0,0,0
0,0,0,0
0.029391968,0.634154708,0.637374878,3.15772289
3.846306212,2.697578758,1.016338646,45.83796278
0,-0.474051923,-0.474051923,0
1.101250407,1.277173584,0.936132848,13.81480907
0.136267395,0.286743164,0.31086731,16.95194645
0.216175956,-0.526862671,-0.533325195,70.07244442
0.293246431,0.063722362,0.062294006,54.57774803
1.074818561,1.293230017,1.110943556,32.74866923
3.226089237,1.537391464,0.755370617,29.54147126
0,1.416170359,1.416170359,0
0.362523756,0.05080986,0.044425964,78.71554739
0,7.723694801,7.723694801,0
0.261817287,0.266632162,0.225653514,68.55028977
0,2.081758261,2.081758261,0
2.079231781,0.184023513,-0.057462595,68.24949466
0.540305653,0.4215071,0.777267456,35.90809152
2.318529483,1.576973593,1.924938202,83.64710899
3.523017922,-1.660310959,-0.672791243,89.21810735
0.258444574,0.096053359,0.012207031,73.94073104
0.555212204,-0.038032057,-0.023826599,88.87871805
0,-2.594117641,-2.594117641,0
4.3075143,0.109526361,0.220273286,88.09080487
0.059918636,-0.018888201,-0.016860962,41.29948293
2.177585002,0.013002757,-0.450123668,27.9707178
3.436157117,-0.395093952,-0.776942164,80.56428434
0.529326261,0.281213168,0.149765015,86.81841012
0.183435639,0.77713718,0.752624512,14.53543056
2.053272582,2.623047647,3.279000044,74.30070371
0,-4.880000114,-4.880000114,0
0,0,0,0
0.241911353,-0.033846119,-0.020225525,89.36768592
0.23938464,-0.109183314,-0.108978271,88.1450957
0,-6.154295444,-6.154295444,0
1.133783079,-0.673492995,-0.587794453,23.04772599
0,1.213261724,1.213261724,0
0.139398728,-0.076638123,-0.06427002,87.91909042
0,-0.124502286,-0.124502286,0
0,-0.952921391,-0.952921391,0
0,-0.028610229,-0.028610229,0
0,1.801636815,1.801636815,0
3.881985506,1.86389199,0.568640292,85.43596854
0,10.29506683,10.29506683,0
0,-1.029538155,-1.029538155,0
3.659240207,2.846812216,0.426180929,80.34046217
1.780565296,-0.578192593,-0.026337024,26.08472579
0.794171569,-8.365425155,-8.353624821,6.115002246
1.597211821,-0.221224224,0.086191256,58.59755282
0.260151063,-0.030738573,-0.057891846,84.58713934
0,7.211335659,7.211335659,0
0.201229354,-0.129256658,-0.133636475,87.00399686
2.263034082,-1.330543706,-1.297657371,50.19421573
4.039492766,2.097402887,0.363918662,53.44050827
6.294567374,0.121066319,0.938527048,89.08718025
0.37544504,0.121468917,0.001708984,87.36888249
0,-1.826775908,-1.826775908,0
0.305988098,-0.132921773,-0.114685059,88.49936088
0.339239128,-0.136667389,-0.09601593,88.11707078
0.253919458,-0.079118162,-0.115242004,87.93609856
0.182040272,0.067132236,0.094062805,87.31183998
0.190432748,-0.025996359,-0.001586914,89.50043827
0.381962066,-0.452995843,-0.714019775,60.45655394
0.212813016,-0.739649308,-0.741592407,41.25580552
0.087655439,-0.104091644,-0.093177795,10.42981993
0.229495334,0.042526412,0.078773499,87.9560404
6.091815196,5.821283801,8.497022152,64.73600185
4.083255393,-2.677848789,-2.46131444,86.9603091
0.658968876,0.33227764,0.620098233,87.23670423
0.323187867,0.181459965,0.01473999,80.77390079
0,0.979258418,0.979258418,0
4.756422616,2.609715686,1.510741234,87.3432808
0.26563611,-0.380814749,-0.490631104,35.91927333
0.256913048,-0.037445557,-0.111076355,88.70786719
0.217540024,-0.015800712,-0.029380798,88.8252674
0,0,0,0
0.325001592,-0.102962026,-0.126670837,89.31456286
0.872142509,0.166895035,0.023942748,13.73476828
0,0.031125572,0.031125572,0
0,0,0,0
0.161860568,0.162672169,0.150894165,24.69166083
0.778573902,0.078366476,0.091720581,72.46284487
0.211131668,-0.0593345,-0.081008911,80.27261234
0.441048975,0.220433691,0.085769653,74.00060083
0.303928795,-0.101015836,-0.000366211,37.67017301
0,3.627215624,3.627215624,0
0.258759015,-0.114221459,-0.093536377,87.39330461
0.095128578,-0.191854858,-0.231170654,10.49433602
0.3350978,0.125123006,0.123931885,89.54846237
0.116528936,-0.064197293,-0.077926636,57.86295568
2.981854125,-0.126568915,-0.129290834,86.02459908
0.403192839,-0.115396275,-0.108505249,68.51714283
0.185765317,-0.138846872,-0.147766113,79.93542729
0.312922422,-0.005133996,0.093643188,45.37977918
0.165519888,0.962997437,0.976028442,52.15517471
0.196274647,0.036436979,0.071151733,74.58554661
0.264800179,0.95974884,0.951850891,22.444587
0,0,0,0
0.135195704,-0.094007689,-0.040740967,52.93795612
0.286844074,0.062512541,0.062240601,55.75701387
0,0,0,0
0.211976785,0.172250387,0.176742554,89.38982774
0.138178926,0.125846345,0.098091125,88.95231377
0.881935554,-2.86331324,-2.761795998,22.20800948
0.50258714,-0.633823215,-0.86428833,88.52050887
0.103026312,0.046114336,0.010559082,82.26475971
0.281348987,-0.32484053,-0.270385742,84.84643453
0.209341359,0.002167922,0.105392456,46.77497087
1.326114806,2.792969303,3.00951159,20.37014346
0.024427965,-0.092078988,-0.091690063,34.12541363
0.171944265,0.880112651,0.845184326,20.6940928
0.018570045,0.248153687,0.259017944,0
0.279760788,-0.02405523,0.001922607,87.71242127
0.320478721,-0.138357168,-0.169692993,89.97086896
0.405222168,-0.524465364,-0.744735718,75.71145711
0,0.668002665,0.668002665,0
0.063133836,-0.013671875,-0.007339478,9.367551114
0.047078886,0.089981079,0.107345581,3.758576203
0.006871477,0.046374216,0.045455933,0.670931869
0.086111422,0.853737267,0.861938953,2.107982987
0.235999166,-0.059497484,-0.057800293,89.75179592
0.300849314,-0.06370767,-0.07913208,89.47949011
0.075467953,0.753157337,0.769622803,13.53468616
4.311915429,2.902643803,2.709121943,48.8662913
3.440490923,2.732620042,2.689967752,44.0925932
0,-0.770956516,-0.770956516,0
1.295605951,0.234963909,-0.052672438,68.31709719
2.967244268,4.405436646,5.758230686,84.75057678
1.59130769,-0.233190088,-0.33518824,74.46454705
0.97228553,1.119722495,1.430579185,9.274350756
0,-0.732648075,-0.732648075,0
0.04040234,-0.044503491,-0.061065674,35.91552581
0.119542751,0.043555652,0.041534424,88.75327427
0,-0.543500364,-0.543500364,0
0.367437093,0.027135887,0.011672974,89.2489269
0,1.212663174,1.212663174,0
0.389745342,0.004298386,0.051574707,87.95682807
2.385182527,-2.026723589,-2.031005859,58.1014454
0.237798792,-0.902931386,-0.94593811,64.41705091
0.661983565,0.353408705,0.185379028,79.64556298
0.465912609,-0.600171987,-0.826446533,49.9830244
4.680668897,-0.131179975,-1.563413739,81.08904517
0.293982042,-0.496910799,-0.368179321,57.05070046
0,1.510787368,1.510787368,0
0.315761526,-0.223304363,-0.219947815,88.59023771
0,-0.144134521,-0.144134521,0
0.148307775,0.948361615,0.928817749,7.493056272
1.453762863,8.049209867,7.776604652,1.27122461
0,0.622375488,0.622375488,0
0.194836555,-0.03418831,-0.062988281,89.95183664
0,0.89067024,0.89067024,0
0,1.29290843,1.29290843,0
0.249422527,-0.078206791,-0.053451538,87.9251515
0.32245796,-0.109656786,-0.182678223,87.8391616
0.149946212,-0.939857089,-0.958892822,31.33149024
1.632532945,1.592335813,1.188606262,46.66648786
0,0,0,0
0.344233289,0.180883867,0.077766418,69.58431005
0.405834377,-0.178170753,0.040275574,46.59061988
4.11192791,-5.230185672,-8.747216225,29.4851604
5.851008889,-0.948103851,-1.823783159,71.29692008
0.356085491,-0.368024747,-0.357566833,82.53896414
0.472597852,-0.242337019,-0.03314209,89.12445699
0,0.986441195,0.986441195,0
0,-9.347249031,-9.347249031,0
0.416221515,0.398647507,0.327003479,86.81682084
0.352658806,-0.038836458,0.077606201,65.05813924
0.399113835,0.166781262,0.013290405,89.35934906
0,-1.368999958,-1.368999958,0
0.750903833,-1.284124888,-1.455674648,16.2304967
0.226207579,0.373408027,0.476028442,30.07179304
0,-0.249004573,-0.249004573,0
0,-5.370358467,-5.370358467,0
0.426767014,0.18698014,0.110275269,88.38416283
4.68395644,0.422343038,0.005985504,52.0791512
3.177822022,2.109254292,0.33279404,45.42850394
0.295636942,-0.262741449,-0.211074829,82.52742493
1.189434626,-0.678178325,-0.948132813,25.92557966
0,0.328015655,0.328015655,0
4.546008659,3.701206779,3.602186441,60.35882016
0.191693334,-0.102057964,-0.110191345,89.95520984
2.908088844,-1.519825149,-1.204283476,51.93346564
0.310989238,-0.039745178,0.006973267,87.40510957
0,0.007182824,0.007182824,0
2.676584984,-0.537130299,-0.440546572,71.40314756
0,-0.112121582,-0.112121582,0
0.269581154,0.136263945,0.019088745,89.37735429
0.302747323,-0.468548373,-0.453941345,41.9973014
0.289352,-0.06047777,-0.023361206,88.43870696
3.212253926,-2.040497272,-0.528289795,60.83615975
0.068540878,0.016737831,0.00958252,29.71045013
0.329361474,0.28890925,0.257751465,87.03568218
0.231295089,-0.669635131,-0.723070979,8.992385358
0,-0.284918696,-0.284918696,0
0.297717544,-0.044026848,0.006629944,83.61619111
0.308675934,-0.206933423,-0.183631897,86.44600129
0.191010888,0.051366911,-0.002731323,87.46266853
0.232888178,-0.131144297,-0.114486694,89.41286478
0.357029217,-0.214546942,-0.075172424,19.80279103
0.999478507,-0.65752773,-0.509980544,41.07669093
0.172553802,-0.087584491,-0.07989502,65.89862217
0.234796201,0.037232664,-0.013374329,89.15154023
0,-0.732025146,-0.732025146,0
0.120217706,0.740457065,0.754821777,41.3357966
0.310406299,0.089019928,0.066711426,59.66161869
0,-1.86514008,-1.86514008,0
0,-0.320832819,-0.320832819,0
0.154976946,-0.047186453,-0.00843811,88.04140353
2.457083251,-1.110635982,-1.197137356,79.79310875
0.221075595,-0.038300893,-0.023376465,75.18775627
0.273767592,-0.218636164,-0.145240784,53.16069974
0.129851073,-0.318172043,-0.295463562,51.86159942
0.208430528,0.369524967,0.355239868,5.874821619
0.382728301,-0.032828178,-0.232727051,83.45881978
4.704953744,-5.237339069,-8.067008972,86.48700562
0,-2.748627424,-2.748627424,0
0,0.864306808,0.864306808,0
0.298065306,-0.067744538,-0.000930786,75.66587655
3.057274857,-3.560117639,-4.297723293,78.57088642
0.179929305,-0.08971489,-0.105232239,88.31852114
0.204520136,0.087796168,0.111206055,89.34900978
0,0.373506874,0.373506874,0
0.422821328,0.598246159,0.656562805,84.96828412
2.191357385,-0.486002051,-1.40065074,54.00501103
0.415879174,-0.258585068,-0.268966675,89.52001478
0.230064253,-0.009237797,-0.017868042,74.83339394
0.359167271,-0.819258128,-0.897979736,87.69225012
0.404728484,0.252096766,0.184608459,89.02359588
0.464363964,0.320800156,0.691070557,87.06888827
2.448711938,-0.554649591,0.816383362,40.69196294
0.173930242,-0.048463889,-0.033447266,86.90882014
1.014290946,-0.739673393,-0.577020228,26.03280609
0.529474287,-0.064494363,0.138702393,87.94023899
2.283723794,5.120342387,6.183026075,26.8779882
4.644972344,3.310597965,0.833207607,56.40483235
0,-0.363929778,-0.363929778,0
0,0.744619489,0.744619489,0
0.38794955,-0.248926499,-0.068305969,40.92159379
0.478168447,0.010340818,-0.171829224,65.3669339
0.28475149,-0.129594741,-0.118667603,85.34884554
1.165806292,-0.73883126,-0.387207031,24.32073215
5.059516789,3.728744745,6.080596924,42.41809841
0.314109793,-0.016110953,0.053268433,89.40902056
2.335613157,-6.749871336,-6.268768311,42.84689432
0.379846804,-0.040253746,0.001541138,83.51577151
0.454782025,0.03076151,0.006095886,89.21265918
4.010039188,0.594143574,-0.931372911,68.80971861
0.237314917,-0.079764496,-0.002670288,84.62365275
0.248147546,-0.132457862,-0.050590515,70.25562824
0.385351472,0.026496582,-0.043045044,89.87499501
3.009995934,0.624027402,0.624954224,85.90167385
0.469405596,0.259130263,0.066444397,87.21791736
0.25891878,-0.330958819,-0.265518188,88.61466382
0,-1.806425214,-1.806425214,0
3.653773384,-0.992695881,-0.868496686,67.59764172
5.337623612,4.51233741,8.618192196,59.34466757
2.17993142,-1.555903044,-1.807677507,65.66893909
0.29616468,0.047220446,0.063949585,83.58348071
0.48588682,-0.102318583,-0.050491333,80.5717226
0.294011868,0.031530302,-0.016738892,65.91833008
4.870514573,2.86534835,1.40065074,89.48085419
0,-0.648025513,-0.648025513,0
2.68272899,5.534886181,6.543552876,30.37515769
1.696915545,-2.835706212,-2.264984012,33.60099123
3.283626645,-2.014693563,-2.024359345,73.79480436
2.484284674,-0.744706526,-0.873910308,67.65771452
1.27567054,-1.389796706,-1.204320192,19.33532763
3.103687604,1.387639433,1.670554221,22.97109573
4.244709391,1.694633507,0.023942748,68.80804979
3.23809827,-0.258709016,-0.538711816,50.99116908
0.374400938,0.140123675,0.082450867,89.24422022
0.326530938,-0.392606513,-0.418319702,11.98033409
2.970215644,-0.525625376,-0.293884277,72.66444599
0,1.302445769,1.302445769,0
0.667851902,1.560487467,1.886630952,17.61627524
0,3.715801001,3.715801001,0
0.21323707,-0.093973103,-0.139343262,79.73549511
0.010982055,-0.011013328,-0.009576807,0.141334988
1.437934013,2.149993126,1.78368032,10.809909
0.181897727,-0.024200722,0.010551453,86.29987953
0.213520284,-0.010884729,0.090675354,58.95899574
0.224085116,0.080648637,0.116989136,82.55779871
0.207942115,0.100318266,0.057388306,88.80314029
0.33777368,0.003587885,-0.014266968,86.35774559
0.116452803,0.974786894,0.978927612,34.50151828
0.83935109,-0.860342755,-0.866727471,16.06222763
0.423606969,-0.185061395,-0.015396118,88.46361336
0.256842043,0.586089248,0.627082825,50.29831424
0.291355825,-0.174425528,-0.158599854,88.58730204
0.233476271,0.176904407,0.212768555,84.3486842
0,0.773350775,0.773350775,0
1.150471784,-0.675513855,-0.569837391,54.80015305
0.467331612,0.448403152,0.446548462,89.90909963
0.531873029,0.161997011,0.049499512,87.22608344
0.150558642,-0.62623626,-0.560058594,16.08210303
0.353725241,-0.122729111,-0.175018311,89.75772808
0.484746276,-0.208103886,-0.070869446,52.54035706
0.237970266,-0.163970286,-0.063339233,49.93177717
0.367376863,0.24433477,0.108856201,74.35533407
0.472356647,0.336737089,0.490402222,89.1246303
0.2518548,-0.022423208,0.004882813,89.24500407
0.011836735,0.081307151,0.08253479,64.42996671
4.66757152,0.930167935,0.016759925,84.2340717
5.378195799,0.927522163,3.11964488,71.13560647
3.025160072,2.311650283,2.021903276,55.30035588
0,0.526740432,0.526740432,0
2.179884275,1.39454979,1.209108829,86.76249457
1.050274161,-0.337773711,-0.330409914,33.74532026
0,-0.294495791,-0.294495791,0
4.774939391,-1.557092229,-0.237033203,74.32944456
0,-0.481249243,-0.481249243,0
0,7.709564686,7.709564686,0
1.176373039,5.156070786,5.458946705,31.98108027
2.154349811,-0.743422331,-0.675185502,53.40465236
4.032744032,-3.124257162,-1.997961402,64.38826787
0.255307906,-0.041586982,-0.049026489,88.96947974
0,0.948103845,0.948103845,0
0.14569662,0.011937794,0.044006348,86.37991209
0.019754454,0.333693968,0.334289551,7.855800079
0.154029518,-0.888018381,-0.903800964,14.66042336
0,0.95531565,0.95531565,0
0.477005421,-0.061671159,0.135452271,89.64145666
0.217185476,-0.065727436,-0.141548157,88.49124417
0.264763236,-0.211229217,-0.211486816,87.85159819
0.183116822,0.200339181,0.185188293,33.31203069
0,0.138867944,0.138867944,0
0.561195815,0.559980992,0.849456787,89.23047135
0.208221716,0.001909868,-0.037956238,37.31142051
0.391968497,-0.054362237,0.023620605,78.82081401
0.257170621,0.089629228,0.068511963,80.66972515
0.634539457,-0.437036871,-0.472450256,88.98380481
0.454506135,-1.016918606,-0.871749878,4.881936726
5.384382514,-4.13640205,-5.900268555,77.71847208
0,-5.074752808,-5.074752808,0
0.833800381,-1.882721795,-1.848022461,20.51417016
3.164948513,-5.143298114,-5.2266922,82.76275511
0.333839702,-0.830183193,-0.908355713,39.40620925
0.153980371,-0.896263807,-0.916229248,32.54293321
0.17832307,-0.031200975,0.017272949,87.65108156
0.495598965,-0.091810146,0.134162903,87.80771741
0.249318649,-0.130502117,-0.200790405,88.42940322
0.276197932,0.467110578,0.386039734,79.46629142
0,0.244208574,0.244208574,0
0,-0.746990919,-0.746990919,0
0,0.651062012,0.651062012,0
2.705289138,-1.636229349,-1.549048543,73.0167988
0.591751423,0.30256073,0.205907628,23.14243122
0.148353297,0.10891674,0.097503662,88.25910088
0.182942052,0.023034382,-0.008010864,54.0929097
0.257790534,0.150790741,0.129005432,86.12111402
4.176735112,0.064127752,1.065452337,76.58552748
0.147292746,-0.024203918,0.013015747,83.3011962
0.2061596,0.01235497,-0.013809204,46.9527056
0.208270062,-0.195628913,-0.088195801,31.84198337
0.434699516,-0.118786274,0.100326538,87.48532337
0.213941157,0.172481238,0.117706299,82.94946663
0.263774655,0.576785446,0.631393433,43.48864786
0.170333645,-0.024093213,0.01675415,89.95047877
0.457280051,-0.201539448,-0.140686035,89.08568728
0.304367453,0.161234298,0.095001221,89.35006429
0.172756185,0.881650876,0.95425415,18.68132144
6.307527798,2.733178341,5.706115723,76.32636678
0,-0.750582218,-0.750582218,0
0.721851981,-0.327446983,-0.117315881,28.96604759
3.924270943,-0.053694549,1.802888989,84.47784482
2.966196415,-2.190231516,-1.138557434,87.46239876
0,0.577102661,0.577102661,0
3.567525716,-0.436876569,0.295944214,86.69991868
0.35508541,-0.402278003,-0.423141479,44.84261228
0.597668754,-0.13313203,-0.192764282,68.75274332
5.826419715,1.881512304,-0.308253467,77.51032452
3.863217115,1.923081512,0.749408007,52.87805627
0.428745213,-0.160057905,0.014266968,88.58064758
0.496752721,-0.373548145,-0.295326233,65.39644668
0.193196218,0.104849735,0.074378967,58.37461212
0.053146509,0.031470638,0.039260864,20.28683195
3.23177198,1.393377171,2.003946781,49.56016752
0,0,0,0
0.191141631,0.079293145,0.012084961,0.051572133
0.221418835,-0.335835325,-0.289459229,62.1595062
0.004836857,0.002904256,0,0.822286524
3.895941117,-6.741285606,-7.465179443,23.95842915
3.34609853,-7.284247549,-6.977043152,16.85956888
2.470818993,-0.830581179,0.708709717,56.54494033
0,0.038360596,0.038360596,0
0.296040082,-0.03832051,0.013000488,80.03539056
0,-0.399169922,-0.399169922,0
0,-1.199495077,-1.199495077,0
2.565610432,0.701345176,1.175588965,72.2811202
0.01874527,-0.045289144,-0.046226501,40.61545495
0.27086723,0.12220014,0.023071289,89.74598609
0,-0.61532861,-0.61532861,0
3.146992353,-0.923981189,-0.265764505,45.26527675
0,0.824802458,0.824802458,0
4.500086364,4.414193547,5.422268152,55.50132199
1.534117931,-2.520590919,-2.547508478,27.62763265
0.239230871,0.002861187,-0.02130127,82.60080585
0.493808133,0.55055305,0.805175781,69.13618999
0,-9.28499794,-9.28499794,0
0.481006176,0.535138482,0.753486633,77.94345453
0,-0.086191259,-0.086191259,0
0.389939679,-0.23761801,-0.078361511,64.35932081
0.451291203,0.212503536,0.119710088,28.91042612
0.332788627,0.235201718,0.278762817,59.73375032
0.031155214,-0.101470518,-0.094520569,29.37517966
0.471877827,0.657580662,0.807723999,76.66544395
1.619745497,5.934124206,6.456268311,37.94610578
4.079372994,-4.074625011,-1.455499947,34.43289002
0,0.608795166,0.608795166,0
0,1.290474772,1.290474772,0
0,1.911770105,1.911770105,0
3.886010338,1.688580435,0.453715071,50.52515029
0.451486621,-0.281373128,0.00819397,50.65941073
0.404500181,-0.047787476,-0.010910034,86.87133025
0.390654793,-0.112353405,0.048088074,85.98672256
0.22539301,0.087059021,0.01159668,70.56428873
0.31215351,0.035002141,0.022918701,83.02402439
0.430990274,-0.446098546,-0.53704071,86.63866542
0.241233971,0.914580404,0.905601501,66.63545994
0.50343155,-0.220405963,0.013832092,50.43518776
0.361168422,0.120328804,0.011291504,82.4909888
1.518288842,-1.204167407,-0.833207607,42.25847412
0.497640447,-0.478376103,-0.555471748,16.97524804
0.033073306,0.048028258,0.048706055,10.80784851
0.266679571,0.04464312,-0.034164429,82.54755814
0.477270451,-0.15136842,-0.25453949,77.4905164
0.011694592,-0.780610785,-0.782424927,2.140317039
1.738669859,-1.136322812,-1.18875742,63.83741205
0,0.634482801,0.634482801,0
0.333823935,-0.807374384,-0.959197998,60.63314862
0.44501405,-0.350290027,-0.04006958,62.61770672
0,1.249811411,1.249811411,0
2.094131572,-0.993846516,0.143652096,84.41497619
0.232081841,0.105448567,0.049247742,85.18449474
0.072303199,0.942256709,0.954879761,3.550608993
0.25316881,-0.062213793,-0.008377075,83.53589968
0.218931731,-0.061510265,-0.070022583,88.22357027
0.736095048,9.324573769,9.355628967,1.462237144
0,-1.046298146,-1.046298146,0
0.396020113,-0.316484055,-0.155975342,87.99226047
5.036739991,1.461347073,0.646434456,70.91051333
0.289116216,-0.142733441,-0.08821106,87.55145929
1.789714188,0.691740126,0.986411095,83.1579841
0.289903827,0.179684673,0.15927124,88.20262193
0.209745611,-0.046150482,-0.044792175,87.96286562
0.437364306,0.1448213,0.42653656,36.22977924
0.1262265,-0.036853712,-0.016891479,24.38486724
0.280431474,-0.023842331,0.005004883,88.08384767
0.244924891,-0.510261003,-0.548477173,31.60019964
1.73356241,0.142270339,-0.383083969,30.4083138
0.208725936,-0.072183843,-0.083686829,70.7271872
0.305873616,0.005798309,0.011894226,89.49000039
0.380911125,0.145791095,0.117935181,85.03590439
0.104205538,0.135589668,0.177734375,57.41127111
2.681955157,-0.350485023,0.10055954,89.85150969
3.901836106,0.800695926,-0.129290834,87.37994851
0.48305216,-0.13079513,-0.255706787,77.03864869
0.392408876,-0.156061314,-0.011810303,85.0458363
0.34498775,-0.107022456,-0.18862915,88.68803434
0.316832184,-0.258252188,-0.266593933,31.46868046
0.191009217,0.155873413,0.085769653,32.02970982
0,-2.152387381,-2.152387381,0
0.503583046,-0.557055896,-0.801895142,68.77961783
0.132626642,-0.258825582,-0.282806396,89.12604781
0,-0.457306474,-0.457306474,0
0.649646247,-0.040150086,0.151115417,53.91868608
0.144399359,-0.891119855,-0.892837524,40.87466774
0.369194547,-0.065773484,0.013122559,71.04741188
1.931306142,-0.583976567,-0.169993512,34.40361901
0.063408952,-0.15881662,-0.170639038,50.41340836
0.227560757,0.063938405,0.012565613,84.66209479
0.077348398,0.030704964,0.026748657,33.48147615
0.484035268,-0.463702115,-0.262809753,70.03919479
0.258262897,0.175407259,0.178939819,89.31538719
0.069040908,0.008607864,-0.018730164,10.7903875
0.57312713,0.167399715,0.093376716,10.92551199
0.111066901,0.125695204,0.142204285,33.44365959
0.431831049,0.229775419,0.011047363,67.6273663
0.326748489,0.242310854,0.273590088,86.06734453
0.343434921,-0.842715146,-0.933776855,80.34288794
0,6.460388184,6.460388184,0
0.470262443,-0.166382845,0.00239563,84.47642824
0.490055359,-0.152956242,0.002380371,87.35273461
0.283168429,-0.03025699,-0.052688599,87.56990169
0,1.352765322,1.352765322,0
0.225779611,-0.054044573,-0.070953369,73.10006379
0.348035809,0.265610288,0.382781982,35.07142982
0.314022526,-0.298388143,-0.499130249,51.9470091
0.031921566,-0.174686526,-0.174606323,24.64947607
0.210579874,-0.101823482,-0.093597412,89.73451486
0,0.191314697,0.191314697,0
0.460388681,0.145323545,0.11680603,88.45147968
0.245961114,0.064583621,0.001312256,82.26187194
0.400545989,0.271385049,0.305557251,81.4152768
0.210201934,-0.214384283,-0.234832764,83.28319461
0.641905676,3.096695215,3.215511084,27.458346
0.2897346,0.018232073,0.010299683,27.04910173
0.319172771,0.44670105,0.613922119,0
0.49800826,-0.379704622,-0.111175537,41.03748085
0,3.944999933,3.944999933,0
4.531954974,3.71452084,2.010999978,89.81163197
1.669928736,-0.320380953,-0.536000013,89.68318452
0.89194445,3.176404556,3.392687321,5.405889191
0.308458521,0.257903969,0.189193726,89.998588
0.185093294,-0.141875748,-0.171508789,88.98201769
3.534642659,3.710493507,4.072661638,78.99489673
0.233570449,-0.097259027,-0.084762573,89.58443334
2.488492903,-0.945382971,-0.567443132,86.65200712
0.382573674,0.063290683,-0.096557617,50.83970631
0.154202855,-0.073498347,-0.119422913,24.67725068
0.56767379,0.332132727,0.220413208,84.86094981
0.486506948,-0.30507814,-0.166046143,76.51408563
0.167544689,0.179257931,0.194152832,75.1480778
0.124260769,-0.120780706,-0.136817932,22.95649102
0.192414843,-0.106052021,-0.129745483,29.03580354
4.679322094,3.964194057,3.646480441,76.13760752
2.598851119,9.363988846,9.270348549,17.31846712
0.398654736,0.054332649,-0.063262939,87.87635757
6.006872889,-0.256354452,-0.183162022,63.73848692
0,2.030282974,2.030282974,0
0,0.076614454,0.076614454,0
0.458868061,0.046198885,0.063850403,89.6482767
4.63939197,1.443410488,0.282524437,52.15704992
0.445250974,-0.488972366,-0.556213379,75.91441162
0.146704903,-0.025408099,-0.03427887,89.78626472
0.317246503,-0.641891264,-0.774414063,15.23426305
0.307658088,0.012407191,0.107841492,73.19585948
0.343447537,-0.047802298,-0.008544922,48.00994244
0.395681391,-0.371883329,-0.291786194,88.37624888
0.451403414,-0.431481916,-0.563705444,17.28449854
0.483485057,-0.357624621,-0.622161865,87.42028221
0.43086093,-0.105217943,0.062736511,87.35100395
0.453252249,-0.268684525,-0.265335083,88.93536021
0.308482057,-0.191376697,-0.217941284,88.30740304
0.316728069,0.274187493,0.197174072,65.34261457
0.02847869,0.013647079,0.012657166,18.14099233
0.231027208,-0.583907817,-0.63168335,35.83952596
0.336369107,0.103608195,0.375236511,59.1981464
0.384598033,-0.111574366,-0.066390991,89.26180669
0.049598694,0.017280579,0.017280579,0
0.272552958,0.157815159,0.031654358,40.51436277
0.327521374,0.786016756,0.8800354,30.33868888
2.557455022,1.515549353,2.202732801,78.77031569
0.253119915,0.071617324,0.078720093,75.97083387
0.443398663,0.046979989,-0.000785828,89.08881219
0.451936082,0.0574888,-0.007583618,82.9145951
0.163247282,0.170233033,0.221923828,44.87021745
1.583213708,2.316108764,2.873129725,46.18608117
0,3.562572241,3.562572241,0
0.558008631,7.425330298,7.539571285,5.35386048
0.202256073,0.047086425,0.035804749,87.19777611
0.227451904,0.197725944,0.240348816,72.87507607
0.270280294,-0.128525628,-0.056770325,83.36087332
0.330779767,-0.20517499,-0.154380798,74.22107319
0.641442148,0.21468981,0.019836426,89.43369496
0.177038869,-0.278334741,-0.324264526,62.52494083
3.455706694,-0.751887828,-0.951724261,81.92739811
0.183822702,0.000218455,0.010696411,88.00384554
0.519704972,-0.536991745,-0.731048584,75.91735538
4.402988551,1.21020732,0.493220598,61.2608074
5.431120669,1.936419755,0.611999989,85.92536562
1.767253979,8.890648171,8.906000137,17.95670966
0,8.408436775,8.408436775,0
0.202610933,-0.05816967,-0.071472168,42.75261332
0.196187541,-0.044211234,-0.06817627,37.56511082
0.245049089,-0.095865591,0.000297546,87.40300271
0.480659903,-0.207233678,-0.071411133,89.14943559
0.070476911,-0.079886351,-0.069839478,12.73998576
0,0,0,0
0.201485559,-0.127396652,-0.14264679,89.20894962
5.186050434,3.901340674,0.967287034,47.08298378
0.392030708,-0.012644106,-0.096931458,88.76238971
0.518318432,-0.15088153,-0.003623962,44.7835293
3.219405641,0.442207113,0.165204957,49.72343324
3.297946336,3.809814939,4.462928295,65.02836693
1.156086757,-0.357626483,-0.146050766,37.7800375
0.239247018,0.150422256,0.134933472,87.41749407
0,0,0,0
0.252563007,-0.813823305,-0.946487427,39.06744141
0.317194433,0.20288491,0.235839844,85.86849927
0.260181699,0.217648416,0.091064453,44.14752626
2.606956533,-5.383432428,-4.717918396,59.85962074
5.102565772,1.790178806,-0.391451985,77.12882799
3.448500115,1.072888027,-0.195133388,54.4550718
0.270307983,-0.140563795,-0.066238403,87.18939257
0.219788015,0.068241418,-0.020568848,68.31561478
0,4.491000175,4.491000175,0
0.002758394,-0.536405157,-0.53616333,0.693366963
0,2.565999985,2.565999985,0
0.161566951,-0.055175251,-0.075180054,89.98637042
0.285062996,-0.068762643,-0.071655273,86.80058309
5.73357868,5.14197018,8.731920242,80.09385525
0,6.12934351,6.12934351,0
0.117046249,-0.016120453,0.017349243,88.91199394
0.412043052,-0.01617603,-0.028320313,82.3067444
0,6.823683262,6.823683262,0
0.656058446,-7.098340852,-7.048745155,0.981938896
0,-0.110778809,-0.110778809,0
0.358483446,0.038214357,0.070549011,83.88915736
0.451009507,0.288958884,0.29737854,89.01685155
0.264015585,0.086308475,0.00844574,77.2112191
1.982154587,-1.952018062,-2.77735877,39.98100621
5.288289175,0.465369962,0.217879012,86.00704522
0.634117125,0.14831349,0.068634033,75.96395329
0.248530179,0.173571001,0.159614563,84.71513261
0.132085527,0.039017776,-0.009399414,38.37497753
3.680356234,6.206320955,7.261835575,65.16150815
0.492689466,0.37863862,0.216430664,47.93740122
4.140314118,4.135336885,3.952947617,59.66239539
4.408679767,-0.833464152,-0.334001347,77.43134012
0.23242208,0.044282388,0.08581543,89.36165733
0.183626817,0.028153785,0.018478394,86.46501506
3.125455615,-2.529846747,-1.350371003,41.48794779
1.207000256,10.36199999,10.36199999,0
0.322916535,0.002464991,-0.066192627,89.90481901
3.094191936,1.682905834,1.075029373,45.11806187
0,-5.018000126,-5.018000126,0
5.091059958,-3.299531639,-0.507000029,26.22194074
0.134470075,-0.033842163,-0.034622192,29.75180581
0.227226947,-0.031491784,0.025688171,53.23430011
0.4774981,-0.525309997,-0.81413269,69.41850182
0.215657024,0.315880236,0.319854736,78.31416266
0.088695129,-0.008046077,-0.006774902,77.7336031
0.651775426,-0.043146485,-0.016487122,89.91204621
0,6.12694931,6.12694931,0
0.247173513,0.051786667,-0.018447876,83.91870463
0.439789409,-0.495010087,-0.584243774,89.83189736
0.563632399,-0.18783302,0.005767822,59.56903771
0,-0.857150376,-0.857150376,0
0.565532875,9.590117623,9.729999542,0.010882139
0.512418288,-0.113257353,0.019165039,78.88564103
0.122663791,0.899850179,0.91545105,5.319766292
0.11626277,0.891940696,0.915618896,9.692482097
0.163336099,-0.005247482,-0.003379822,42.53151558
0.290568128,-0.003023118,-0.004074097,73.18462733
0.300024086,0.162749533,0.086769104,89.32797535
0.391255717,0.172478277,0.011795044,42.00876971
0.17552007,-0.036915034,0.017501831,89.70914535
3.662430918,0.04458066,-0.444999993,49.55628797
0.221627132,0.005650482,0.005950928,89.58311758
0.195254243,0.264051633,0.355697632,63.21850716
0.594796361,-0.544779607,-0.730270386,49.35384861
0.313380758,0.112865039,0.008056641,74.17695833
0.34971816,0.221532389,0.008712769,61.70656034
0.503360731,0.670363038,0.84034729,40.31586814
0.25152326,0.10517681,0.086654663,71.05489701
0.126831939,0.056405182,0.018531799,47.13467786
0.525490549,0.166441902,0.005348206,84.40310902
0.044960166,0.009799321,0.004447937,0.095032852
0.186651649,-0.010553275,0.005622864,89.04094452
0.756720354,0.120245801,0.007182824,24.72088343
0,0.385478258,0.385478258,0
0.369693225,-0.25077551,-0.216552734,89.22212688
0,0,0,0
0.69159613,0.392155609,0.462095037,32.08311502
0.25942166,0.142290063,0.078857422,85.55109707
0.07368136,-0.00263896,-0.00793457,70.33103773
0,-10.21800041,-10.21800041,0
0.414513242,0.269954416,0.024017334,24.79994816
0.153142626,0.036095149,0.025718689,74.26560643
0.537540594,0.343555608,0.724105835,67.07462046
0.234742691,-0.017758233,0.003265381,37.44470954
0.200055284,-0.001521228,-0.000976563,88.10646998
3.714878352,1.11094351,0.385478243,44.31707142
0.191713949,-0.038184492,-0.057449341,88.70014378
1.893004029,-1.098511722,-0.793702096,43.258564
0.340261418,-0.094762034,-0.027618408,86.25454955
0.491639279,0.108315333,0.018554688,86.2244188
0.166319844,-0.059292293,0.017196655,88.71449233
1.642581023,-0.143254871,0.038308397,82.22270588
0.454927786,-0.217100268,-0.00112915,79.44320672
0.428113795,0.054517933,0.228538513,82.84592232
0.439070388,-2.04652704,-1.965699673,2.201325114
0.1488353,-0.091360486,-0.086193889,45.59888173
0.174244633,-0.906010927,-0.969924927,25.86395978
0.377725699,-0.13218009,0.018722534,72.97539467
0.182419533,0.069557489,0.030181885,87.84873488
0.332569398,0.095488481,0.066337585,85.77474582
0.614040728,-2.071116043,-1.877054095,34.10266971
0.22357436,-0.856332092,-0.913345337,43.28786775
0.174121766,0.104102083,0.114921682,5.884480626
0.580452458,0.038307229,0.229843363,18.07077406
0.23445278,0.06318224,0.030792236,77.10581464
0,9.926663399,9.926663399,0
0.624121441,-0.49482068,-0.840026855,85.38545327
0.204857241,-0.002375025,0.002593994,89.94184338
0.434733758,0.181050343,-0.061233521,43.70876124
0.251919611,-0.050465584,-0.055381775,86.97095342
3.894566008,1.870088267,3.100585938,57.0110718
0.393691586,0.099081918,0.024215698,89.88100853
0.219779805,0.134908033,0.097801208,89.77247406
2.680928167,0.645323576,0.3711126,63.67801825
0,-1.814804912,-1.814804912,0
0,-0.260968,-0.260968,0
0.675012405,-1.232493392,-1.230619669,18.24968868
0.688259343,-0.380751185,-0.529403687,85.01304018
4.916817528,-1.329084009,-0.871489435,89.39626554
0.343318905,0.205390357,0.150009155,86.41489318
0.407868539,0.008537605,0.046897888,88.34676147
0.081264261,0.063066483,0.065689087,11.18675902
0,1.654393315,1.654393315,0
2.398144175,-0.162299893,-0.124498487,85.75577888
0.659079092,-0.228162624,-0.422233582,77.20755726
3.845535548,2.251221654,0.162805721,20.63663151
0,-0.07522583,-0.07522583,0
0,3.241847992,3.241847992,0
0.472822276,-0.136165132,-0.012519836,89.41309959
0.323298328,0.260910213,0.51008606,88.91312661
0.725375937,-0.112527484,-0.375889659,71.97138216
0,-2.144999981,-2.144999981,0
4.14743533,-2.272097394,-0.131681092,59.21940243
0.781839699,-0.287521859,-0.18435353,51.40002713
0,0.333000004,0.333000004,0
3.032145685,-4.283616594,-3.8642416,43.42518848
0.10763978,0.044129795,0.025520325,75.10967846
0.258172478,0.001654503,-0.061096191,88.0389794
0.507993379,0.541165112,0.527236938,88.30403729
0.156820238,1.15041393,1.15041393,0
4.917997116,-2.896002429,-0.905008227,88.16949868
2.288335918,-0.824689221,0.229850382,48.79322975
0,4.647999763,4.647999763,0
0.28835255,0.180288447,0.175384521,89.79800787
0.209864971,0.022174976,0.005020142,83.06433839
0.224408671,-0.126403252,-0.049377441,87.83665808
0.590157696,0.051274001,-0.121681213,60.98917084
0,-3.047911882,-3.047911882,0
0.267159317,0.042332649,0.003723145,77.35096832
1.359155451,1.208160009,1.116999984,20.89437365
0.16758653,-0.934928771,-0.943786621,85.73952262
0.23607834,-0.006766212,-0.00478363,89.16318901
1.999720779,-1.215693049,-1.437762022,35.71790393
0.248911123,-0.024934303,0.019638062,89.43762398
0.121380723,0.148544413,0.145736694,26.68563321
0.433085319,-0.353663623,-0.39024353,80.30452711
0.033398172,0.02239418,0.011428833,25.63316403
0,0.068000004,0.068000004,0
0.445395848,-0.133922415,0.056999207,58.59721615
0.254308168,0.103552858,0.021392822,85.9279143
0.177531392,-0.047008689,-0.041915894,88.00612128
0.418282646,0.006307253,-0.01574707,84.61649344
5.987313331,-1.290184911,-0.796096385,65.20012769
0.327602901,0.843186527,0.998977661,63.01701259
2.40839161,-2.538800766,-3.643371582,28.84393238
0.218178879,-0.129114809,-0.166046143,86.82258887
0,-2.080624819,-2.080624819,0
0.319690346,0.233180792,0.448875427,86.29236704
0.418466222,-0.055768374,-0.028175354,85.3596141
0.51670681,0.007131527,0.122383118,88.04808285
0.010437012,0.082336426,0.082336426,3.364607669
0.229969828,0.414080762,0.48815918,65.23112116
3.980561876,1.054627943,0.241821751,89.48482522
3.869218964,1.309189449,-0.328015655,30.17538001
0.349686145,-0.233016196,-0.224449158,57.57206512
0.178657999,0.011435789,-0.002662659,86.04028804
0.125358059,-0.191606544,-0.202278137,1.187357598
0,0,0,0
0.249205843,0.308919681,0.351989746,86.79608322
3.858650925,-2.54653279,-0.497993946,9.005740829
0.144875361,0.088115147,0.018508911,0.718072836
0.006835938,-0.521392822,-0.521392822,0
0.438937165,0.204704248,0.251391187,24.58133628
0.273611538,-0.143373113,-0.168334961,88.10837096
4.483136567,7.607421997,9.699207306,61.0874646
0.156875859,-0.717103365,-0.752861023,20.5890714
0.294444208,-0.034446927,0.013328552,81.4224715
0.401719175,0.255762651,0.00479126,65.97395691
0.124609283,-0.008278926,0.014846802,49.88466042
0,-1.72300005,-1.72300005,0
0.153528313,-0.705746914,-0.750938416,21.53529627
0.656922618,-0.053428504,-0.229843363,16.05988283
0.30549903,0.018017597,0.004051208,89.63182544
0.2609265,0.116261332,0.004066467,1.311869362
0.338908877,-0.370883874,-0.459457397,73.10662667
0.252119697,0.128372588,0.135528564,84.89264707
0.035312758,0.074638171,0.077972412,3.400103672
0.422992118,0.36151339,0.403015137,70.84388387
0,7.268796444,7.268796444,0
2.153337235,-0.912017658,-0.471672148,85.05609741
0.025601202,0.104420528,0.104850769,14.46833176
0.218327393,-0.038667887,-0.042709351,87.96499743
0.439898701,0.187172848,0.075241089,88.57350054
0.257290683,-0.642804243,-0.695983887,34.37564986
0.28123974,-0.056706363,-0.055831909,87.61567486
0.289406778,0.548489845,0.639251828,21.23490483
0.790543458,0.194875804,0.070648193,79.8562005
0.453810181,0.032871673,-0.008346558,50.5724551
0.160042018,0.085286344,0.017524719,63.38201332
0.211733805,-0.179977728,-0.141433716,89.80949527
4.821452071,-0.868696196,-0.086191259,78.1652808
0.304977932,-0.117918905,0.001693726,40.87067637
0.426762033,0.362901335,0.355270386,67.93689162
0.300583658,-0.48357843,-0.502807617,86.71691424
0.273952009,0.913514408,0.951049805,26.77302019
0.327002985,0.213101525,0.195480347,64.2830163
3.183675376,1.152158169,-0.021548472,78.60189573
0.270695111,0.253932716,0.169418335,88.30559327
0,0.797731996,0.797731996,0
0.286440102,-0.301558765,-0.279121399,82.40365567
0.350294754,0.049598638,-0.050956726,83.85857506
0.123155428,0.517189636,0.512550354,25.48525984
0.272293104,-0.07995201,-8.39E-05,75.9665178
0.023658351,0.173319408,0.16759491,2.916587585
0,1.098938584,1.098938584,0
0.168215181,-0.505276919,-0.455886841,64.60089616
0,2.884353638,2.884353638,0
1.109597288,8.591424103,8.844450951,1.041036674
2.641601902,-0.231911549,0.052674048,68.56461721
4.134734491,2.15999981,0.177176341,43.11373763
0.301938963,0.034718849,-0.011512756,87.28703135
0.468138218,0.133132411,0.052520752,88.41168105
0.210855242,0.642843337,0.685516357,50.38286643
0.457029693,0.297610543,0.353530884,89.38233496
0.407188625,0.269397667,0.082427979,89.92430196
3.152944191,-0.586676524,-1.03263092,79.71543734
0.501930237,-0.49420929,-0.49420929,0
0.220976568,0.198849518,0.197692871,89.41046009
2.527481396,10.02238036,9.385271072,11.42043804
0,9.113830566,9.113830566,0
0.406298544,0.271349393,0.077453613,75.53605938
0.188189068,-0.069341046,-0.102859497,89.36616161
0.268898675,0.391342163,0.434692383,25.98337752
7.340543677,1.723346353,6.224924326,80.21592129
0.410475482,0.155015857,0.034713745,82.41962109
6.260692409,0.150124971,1.369525194,73.95707956
0.485962495,0.19922978,0.17918396,89.34643952
0,0.59376204,0.59376204,0
0.271946685,0.05834551,-0.024261475,54.10816714
3.010829286,0.738109115,0.745000005,44.73698582
0.610855445,-0.817968907,-0.833251953,12.92046056
0.918843009,-4.583285638,-4.501999855,8.305845428
0.290558999,-1.181885039,-1.281845093,7.275290991
3.251406747,-0.642302012,-0.881066233,89.83833443
0,-0.773956299,-0.773956299,0
1.157646951,1.106886361,1.363000035,63.86839454
1.928697541,1.826273022,2.067456245,76.96734254
0,0.693121374,0.693121374,0
2.426188056,1.435682997,1.215057373,68.16280048
0.259783193,-0.057590732,-0.017349243,89.34000889
0.20552922,-0.027114112,-0.053588867,89.83580087
0,-10.52012253,-10.52012253,0
0,-0.976834297,-0.976834297,0
0,0.084152222,0.084152222,0
0,0.723048925,0.723048925,0
0.578114728,-2.801133307,-2.795000076,11.44578089
5.756007998,2.979239641,4.979939461,88.94250965
3.15883231,-1.087742434,-0.786758423,83.81809448
3.17992557,-0.968157628,0.119710088,58.97981608
0,-7.699813843,-7.699813843,0
6.920198957,4.171429309,7.89415741,89.53070767
3.009602283,-1.436686605,-1.065452337,53.38648991
0,1.517929077,1.517929077,0
2.536239676,-1.47587252,-0.733822823,48.21462825
0.304836728,0.068158434,0.105682373,85.39158234
0,-2.170578003,-2.170578003,0
0.726548734,1.165257951,1.26413846,10.97392736
1.212566006,-0.446627423,-0.191536129,6.838371596
2.933374184,-1.741851127,-1.234210968,62.55085153
2.842743124,0.435838599,-0.215478152,89.52672248
0,-8.341399193,-8.341399193,0
0,0,0,0
3.005503176,-3.670153618,-4.128120422,46.37742931
0.148870771,0.029255894,0.074417114,66.80658552
2.414849742,-0.266881837,-0.40223816,47.74576756
4.07383997,0.161346436,-0.156906128,88.7913158
0,0,0,0
0.094816239,0.051043428,0.051933289,36.44080762
1.436047615,0.490935722,0.864306808,83.38345846
2.157718357,1.158820008,1.510999978,76.26730616
2.912986334,-0.867911168,-0.876304567,86.14205558
0.006402568,0.537680709,0.537498295,0.1457368
0.85951829,4.189852953,4.189852953,0
0.412349104,0.031234068,-0.058105469,86.95627334
1.9717864,1.253269843,0.123305149,46.27053994
4.753683181,2.807785735,-0.484999999,21.80356842
3.15529823,-1.457285708,-1.549682617,84.92952717
0,0.756567717,0.756567717,0
0.143502636,-0.057011362,-0.046707153,86.21467459
1.969175448,3.845257078,4.756225586,71.07875835
1.808151728,0.480565159,0.964892775,83.92006129
0,0,0,0
0.280816309,-0.644144031,-0.801078796,89.56124195
0,7.422999859,7.422999859,0
0,-1.675941229,-1.675941229,0
2.637994909,-0.639215404,-0.054756165,88.28536103
0.255875403,0.147831702,0.076187134,89.89927269
4.727045676,-1.693125367,-0.015562311,42.55439928
0.26068514,0.005039146,-0.044372559,89.39289015
2.146283919,-1.267586674,-1.488041759,87.87967256
0,0,0,0
2.120225782,5.074837013,5.884947777,86.56807794
0,5.844246387,5.844246387,0
0.778470886,2.4987931,2.413000107,13.01100832
0,0.166473389,0.166473389,0
0.130510463,-0.004765919,0.006919861,41.75452778
0,3.524536133,3.524536133,0
4.466912616,0.795170313,0.25379312,83.28548857
0,-8.775946617,-8.775946617,0
1.891757602,-0.708833336,-0.852335781,35.84213197
1.021742612,-0.115354117,-0.019153614,86.66665998
0.090775252,-0.038693942,-0.014152527,17.98997821
0.200310374,-0.195663799,-0.172416687,81.3162612
0.582311815,0.30724816,-0.016662598,75.26439916
1.851929048,-1.486848582,-0.542282104,71.97181392
0.279575996,-0.043719007,-0.049186707,67.06999818
0,-6.803722858,-6.803722858,0
0.137431973,-0.754389633,-0.794487,5.40774967
0,-0.414209545,-0.414209545,0
0.703909796,0.206576877,0.083274841,10.33596702
0.86610547,1.558433844,1.887916565,19.04050571
0.040140486,-0.859846247,-0.8670578,4.698056355
0.231040955,5.424491882,5.424491882,1.964048085
1.476278095,2.300286865,1.841674805,1.722420735
0.171380898,-0.027012109,-0.054718018,29.12951609
2.886883529,-1.60870583,-1.318008423,84.28294801
1.593007299,3.073117492,3.423708439,33.5319131
0.265919989,-0.094206407,-0.005172729,88.87602125
1.460418604,0.179959106,-0.60546875,25.87212795
4.149827691,-6.564900964,-8.944737434,0.057069393
1.461063778,-1.958602092,-2.020706177,88.99811384
0.043305464,-0.044953137,-0.051513672,11.560121
2.404215165,-1.510310966,-1.079360962,77.90783884
0,7.143661499,7.143661499,0
1.961906898,-7.227138172,-7.972610474,17.91663181
1.081710799,2.589267731,2.435829163,8.074690825
0.396255413,-7.798680884,-7.652999878,2.344971474
3.62264538,1.142372095,1.151000023,85.59614941
0,-2.423568726,-2.423568726,0
2.149915035,-1.905609732,-1.32205081,32.923078
3.05909717,1.483890286,2.953399658,88.24809155
0,0,0,0
0.633000164,-0.714281053,-0.703735352,80.26862
1.910752529,3.85056396,3.820065379,20.45498695
4.318728332,-3.137014989,-2.213439465,89.14034709
0.299796286,-0.205001989,-0.154159546,88.49284988
0,-0.893051147,-0.893051147,0
3.241361699,0.447897088,0.401580811,69.9147789
0,3.41423583,3.41423583,0
0.370766045,-0.615186423,-0.454898328,14.61653689
1.442881949,1.992368164,2.087807655,77.40021019
0.302052705,-0.242509903,-0.25213623,89.56276378
0,-4.946571827,-4.946571827,0
0.348826871,-0.230033599,-0.175895691,89.61339936
1.879656887,2.433084344,3.17959702,21.18600996
3.164399844,-0.830315539,0.158022135,76.68493779
2.579734362,-2.782380821,-1.277306557,67.04596106
0.315444074,0.027068882,0.015335083,87.28828776
3.584376347,-0.655314448,-1.271321058,89.27665946
2.912499408,-2.218899997,-1.02700001,26.9223533
4.795935202,5.684898569,7.091841936,68.11582953
0.531561267,0.001146111,-0.187438965,89.20965671
1.580181756,2.476504163,2.911026001,43.24995119
2.858215534,1.414939381,1.388000011,89.75528
2.540495892,-1.170842436,0,25.16379738
0.251074272,0.037918446,0.027130127,89.57864369
0.047637968,-0.020548757,-0.015678406,25.35108641
0.222971966,-0.053525046,-0.01234436,71.79881112
0.806345282,-2.119938038,-2.499221802,64.0726668
0.690814206,1.92504256,1.981999993,5.054616544
2.999402249,-0.457185998,-0.30645752,89.06050101
1.830164922,1.736397483,1.285293579,43.66462196
2.391736117,0.969437277,0.955286503,88.85100938
1.784293012,-0.042120683,-0.164999999,40.68774967
2.99538695,1.665064385,0.742456079,39.83511458
3.053001937,-0.982962308,-0.54624176,89.82115768
0.254885226,0.183008723,0.134399414,86.02403372
0.06403193,-0.119739532,-0.136062622,13.65415336
4.025383061,-0.105177081,0.213090464,52.47755848
0.37500899,0.240080948,0.064102173,86.09333688
3.484016184,8.909372774,8.395524502,58.85806021
0,3.059883118,3.059883118,0
0.182135191,0.542633057,0.641998291,3.093320867
0.47508712,-0.258081871,-0.059814453,89.58583953
0.745278395,-0.846655709,-1.322128296,2.018572538
3.234797128,0.946991739,-0.277727395,19.66643939
1.761036058,-0.636593886,-0.89243871,82.58450875
0.284033518,-0.043343601,-0.044296265,87.4949568
0.393986651,2.42343394,2.561203003,9.533466704
2.937998971,0.844049636,1.000028163,81.0848738
0.239902693,0.111777041,0.044189453,78.98677672
3.479598597,8.970034676,9.189227104,84.23618941
2.450767693,-0.221482443,0.377853394,77.00510785
0.649099563,-0.125226263,-0.049324036,88.77427062
0.446842537,-0.021554538,-0.06427002,76.92660944
0.534151455,0.037903323,-0.005264282,89.34751847
0.228792051,0.329907962,0.344482422,87.86910058
1.25586363,-0.717999989,-0.010499999,37.06695899
0,-0.092330933,-0.092330933,0
0.358141868,0.104087781,0.0832901,89.0184776
1.550804658,3.846209382,3.972101927,51.31054685
0.305151729,-0.130804211,-0.169578552,88.94148868
0.803091237,-7.476066685,-7.677000046,2.544297803
0,0,0,0
4.134140053,6.111172592,9.123519897,57.15797254
1.777685327,-1.000697374,-0.414855957,57.3295501
0,0.891067505,0.891067505,0
0.547450643,0.401305734,0.281799316,83.27321309
2.204631653,4.176144473,4.559677124,32.29528534
4.783429804,-1.013116245,-3.853973389,33.48543932
0,-1.294891357,-1.294891357,0
0,-2.250930786,-2.250930786,0
0.355715512,-0.060731244,-0.047431946,89.44182771
0.036703852,-0.005109887,-0.005187988,15.61934139
0.371060173,0.231225195,0.147956848,87.34468987
0.147374976,0.103053727,0.129516602,87.36171308
1.159059131,0.858668736,1.286888123,20.69020779
3.58048615,-2.199253701,-4.150863647,47.51171642
0.133788148,-0.016008129,0.006881714,84.00496694
0.942394626,0.707874393,0.555454791,53.29920112
4.636869026,-1.088764703,0.519999981,67.10975419
3.416570442,3.453433622,4.30836606,85.9872636
0.272992471,-0.051055202,-0.093345642,87.12240919
1.035523891,4.926220417,4.926220417,0
0,0,0,0
0,2.300094604,2.300094604,0
3.588370936,0.876575394,1.24937439,85.47431366
0.288482408,0.040177173,0.024398804,80.23828914
0.491869476,0.31530486,0.244598389,69.25962966
0.819616458,4.506742665,4.484339714,13.07255356
4.104818977,4.292566405,1.623318315,47.01095515
0.389429793,0.596580649,0.703285217,74.07616422
0.438653136,0.489538414,0.603927612,53.74083552
0.176095232,-0.098671448,-0.070556641,34.74560383
0.378102409,0.21136275,0.004356384,84.92504947
1.57611915,-0.187742971,0.047884032,85.62247937
0.372948155,-0.243419809,-0.058868408,89.26525718
0.109315724,-0.122240331,-0.145675659,34.92565163
5.213184003,-1.238477004,0.496688843,89.3511151
3.889876243,3.515560016,4.758499861,89.54589315
1.438277081,-1.053023107,-1.508347034,18.6781942
0,0,0,0
2.21160414,-1.049830331,-0.818023682,84.43148906
0.312851185,-0.109702125,-0.080245972,88.08509722
4.052318114,-1.828097661,-0.701545715,87.86375807
5.460329687,0.990260023,-1.466781616,76.43292753
0.485705138,-0.378622283,-0.256378174,77.52130322
0.072079117,0.312195248,0.300697327,7.110737119
0.529852775,1.584003854,1.685518026,4.801913956
0.206329464,-0.003408383,0.025161743,89.26237681
1.174409637,1.077505112,1.061546326,25.83571248
0.442420959,-0.876731873,-0.876731873,3.788318493
0.305536304,-0.035168816,0.00038147,17.25889925
0.455904141,-0.029018317,-0.013534546,85.1098276
0.215385406,-0.0338998,-0.059761047,65.61366063
0,1.140487671,1.140487671,0
0.33859016,0.048607826,-0.036087036,72.28243669
0.230387725,-0.022248332,-0.004486084,51.33032995
0,7.073150635,7.073150635,0
0.391496714,9.28801473,9.293197632,0.514364976
0.255953395,-2.67E-05,0.012893677,75.64346506
2.955448453,0.458204338,0.014365649,87.14594625
3.154004181,1.728424371,0.910644531,87.30569343
0.197856131,0.148267257,0.148788452,89.92163062
3.844550976,-3.870719029,-2.125846863,44.70142222
3.459605366,2.126583152,0.957680702,74.24506312
0.266569919,-0.010031831,0.010284424,85.15966249
0.482210688,-0.047660199,-0.111129761,82.11388212
3.068356244,-1.809650688,-0.788889468,82.62615034
2.78112501,5.981485735,7.055927753,78.64837151
0.252814687,-0.104528164,-0.122406006,89.92054332
3.86347546,7.469680009,8.12100029,29.86151856
0,7.976333618,7.976333618,0
5.068261104,-1.214017239,-2.60249722,65.67183355
0.249875179,-0.887841232,-0.966461182,30.18980425
0.076458546,-0.138641559,-0.185211182,31.09264124
3.298304418,0.938828227,1.383848548,81.73908404
0.237235947,-0.048167971,0.015548706,89.19812469
0.346744925,0.23874657,0.304000854,86.02113761
3.995933832,7.342442785,9.044373512,83.16781808
0.258962516,0.786611719,0.837585449,28.23313109
2.175191918,1.388935908,0.945738554,75.20424555
0.362472421,-0.042034933,-0.086547852,89.45109962
0,0,0,0
2.604593207,-0.572398726,-0.727499992,87.3073355
2.559931958,2.21224237,2.379836559,85.83627241
4.147156353,0.352040634,0.068999998,88.43313957
1.265511186,0.338609262,0.431554854,47.18167781
1.277461888,5.015099843,4.430648804,7.962122517
0.091063314,-0.059788364,-0.043365479,20.91490389
0.261190516,0.082545546,0.131088257,89.38361066
0.08785699,0.010158126,0.003417969,22.52489245
1.794689539,1.05427778,0.809000015,21.45157224
0.472501142,-0.723732973,-0.660799652,11.97915153
0.341460381,0.004741946,-0.015274048,89.35953186
2.341362708,0.394245215,0.296881005,59.59659689
4.440482272,-1.13029396,-1.822043121,87.78936387
2.744065571,0.926000006,0.143000007,58.00858203
0.912659585,-0.52033984,-0.095768068,22.31716742
0,0,0,0
2.065654914,1.449335449,1.504755735,79.36183661
0.063446403,2.025494695,2.025494695,0
2.06552336,1.249923073,1.963000059,79.15992909
0.47942022,0.370597763,0.321090698,86.73424643
1.106681824,-3.925422668,-3.925422668,0
3.533538794,0.87581865,0.18674773,77.72955228
0.146947544,-0.211017955,-0.26260376,17.97382599
0,0.065673828,0.065673828,0
7.010633523,-0.838713556,-0.037110128,61.16878777
0.396290772,-0.548855369,-0.715179443,87.35981769
0.853751181,1.497094321,1.735796213,23.76144822
1.389041551,8.723369246,9.13894701,9.473733421
0,0.715866327,0.715866327,0
0,-1.189300537,-1.189300537,0
0,0,0,0
0,-2.763778687,-2.763778687,0
0.327321168,-0.214569719,-0.135421753,88.57399553
4.080514099,-0.246229488,1.085770488,89.05566481
0.173390175,0.183440362,0.199157715,79.83867202
2.106539658,-0.360018197,0.240219116,36.86736796
0.263859523,-0.082255651,-0.029067993,88.05532993
1.716135071,-0.807891457,-0.96154967,70.0084632
2.099970099,3.754207611,3.794807434,29.09169646
0.180614151,-0.782041879,-0.802131653,12.6339062
0,-1.297999978,-1.297999978,0
0.092528327,0.020144396,0.032783508,83.3649352
2.710457667,-0.09876985,-0.196212769,84.40148555
3.659209277,2.164832126,2.293000102,70.66634701
0.088999994,0.251999997,0.251999997,1.252290307
3.596989949,6.537884006,8.89666748,86.37180542
0.85380431,-0.467483226,-0.575805515,46.11788266
3.239639231,-0.502913783,-0.764999986,29.8452337
0.241029118,-0.034053223,0.051933289,87.29098125
0.250608208,0.318895311,0.377006531,76.0848574
0.164922896,-0.01402079,-0.064590454,83.44716693
2.966978547,-0.583747002,-0.596174419,88.16276968
0.099925078,-0.916538764,-0.9402771,18.85038419
1.194419677,-0.69525528,-0.68637085,66.91917651
5.066825252,0.814736155,-1.196731567,89.41425655
0.324404183,0.033199346,0.020111084,86.95803633
2.587123769,-1.620339454,-0.315155029,45.68079135
1.913938203,0.654387081,0.420387268,89.73491207
0,4.897833347,4.897833347,0
0.146874706,-0.115645122,-0.07220459,87.35951418
0.243911057,-0.136185599,-0.038619995,50.77586973
0,0,0,0
4.803805182,-0.416045262,-0.408744812,58.524262
3.877005626,-1.111302694,-0.540611267,56.59145246
1.924477034,0.246732411,1.013786316,51.47092097
3.965947844,2.224120873,2.187728882,85.61768427
2.186438001,0.294816876,0.177398682,88.6555081
0,-3.585317135,-3.585317135,0
1.653562374,-1.539781547,-2.39239502,41.04733019
0,7.761611938,7.761611938,0
1.337880201,-2.268306594,-2.179920673,30.26799292
4.193563374,-0.63168436,0.928848267,83.49944705
3.243352111,-1.761529592,-1.790862918,84.94385452
0.169288161,0.235229308,0.273658752,53.53648466
3.274206928,0.442666668,0.186499998,86.87248592
0.208253803,-0.103971191,-0.172660828,86.62297385
0.396230096,0.063746439,-0.044952393,63.15734483
8.117269623,3.233707519,9.225140572,73.46969157
0.51367687,-0.452589555,-0.66217804,87.38764972
0.818952777,1.99241918,2.183511972,12.01913262
0.430122246,-0.093268803,-0.045677185,88.82844602
3.093011028,-0.975230769,-0.648999989,87.97386929
0.131592848,0.29498291,0.356361389,9.875091839
1.633716929,-0.370690825,0.023942016,83.56816787
0.267948723,-0.184970957,-0.118675232,87.71049089
0.567692794,-0.256079822,-0.384269372,34.23735241
0,2.039922237,2.039922237,0
3.488844783,1.179773569,1.475999951,83.40575388
0,-1.368000031,-1.368000031,0
2.693397274,5.8097229,6.375,49.65596932
0.683082583,1.237016683,1.44909054,36.11098605
3.6043192,-2.699893377,-0.881066203,66.50889816
0.259273262,0.065744674,0.051574707,89.58207191
0,-3.452438831,-3.452438831,0
0.181724896,0.107909463,0.14112854,67.44650452
2.856240756,-2.778979442,-2.683301568,89.85997438
0,2.255752563,2.255752563,0
0.358395784,0.044608638,-0.008811951,88.48446027
0.358395784,0.044608638,-0.008811951,88.48446027
0,8.787151337,8.787151337,0
0.355048496,0.082840719,0.022628784,84.20776068
4.519555894,-3.607008486,-2.050633669,89.43471299
0.356456409,0.070448535,0.086166382,88.49147753
2.791382762,1.081930525,0.032322709,45.86928113
0.183586346,-0.093044565,-0.10496521,87.84361657
3.87068264,1.193816912,-0.606930137,89.63741555
2.397160202,0.359972662,0.401028782,87.22896011
2.679186574,-0.719666134,-1.029907227,83.38974695
0.336302643,0.581491727,0.481833085,4.388147062
0,-8.450334549,-8.450334549,0
2.866567809,-0.132389684,-0.491470337,60.62021964
0,0.647445679,0.647445679,0
0,-1.272518158,-1.272518158,0
1.381998294,1.463968832,1.329380512,28.03268731
0,-0.272938997,-0.272938997,0
3.574590131,-1.012415769,0.21459198,88.95929757
0.186765345,-0.092685382,-0.031692505,78.68800068
0.82018018,8.413874965,8.055291176,2.972755051
0.266868154,0.176026827,0.240783691,89.93418601
3.102932216,-1.686623014,-0.548272192,71.35284096
0.212085314,-0.048320962,0.003875732,78.53894023
1.334263264,0.178217043,-0.029927522,19.11676017
0.604703587,-0.134713749,-0.159214415,21.31935012
2.179241033,-0.571657979,-0.086191259,70.92399175
0,-3.64648056,-3.64648056,0
0.357807786,-0.110923374,-0.113128662,84.24709896
0.54739914,-0.239399511,-0.139274597,83.94105218
2.913795593,0.655849914,-0.526740462,48.9892623
2.800627909,1.804365104,0.598568678,84.78054591
4.408031875,-1.107660404,0.942118347,3.541550576
3.314793364,-0.51333744,-0.196330532,88.13635835
3.473759479,0.318650466,-0.206878662,81.33940788
4.587353958,-1.301847146,0.065840548,86.15826635
0.756474143,0.430990517,0.398634583,11.24385355
0.346316871,-0.068348732,-0.153503418,88.36283308
0.037115433,-0.023872375,-0.014549255,8.435700494
0.269532015,-0.013176373,-0.022949219,45.8440283
0.305623645,0.075408445,0.103729248,81.89896706
2.931118051,-0.793228953,-1.456871748,58.10810572
2.001184131,-1.313474572,-1.268478394,80.09611866
0.702462825,0.028340415,-0.023231506,85.90017139
0.132578456,-0.49718811,-0.465873718,65.78697952
0.296959221,0.047793711,0.091651917,88.11988037
0.400248146,-0.129778352,-0.005157471,87.50007538
0.149000845,-0.027069943,-0.018981934,52.69964396
3.662774841,0.122992943,-1.428141356,84.84221323
3.79397123,-2.994517318,-2.584540725,86.85099052
0.145250669,-0.122388653,-0.069595337,22.37586028
0.755230121,1.891501898,1.926135302,5.991655878
5.500612096,1.049011426,1.55758667,84.52400077
0.516348799,0.00848225,-0.166366577,55.90683368
0,0.507570744,0.507570744,0
4.116864989,-0.874234436,-0.517150879,87.63752229
0.25571372,-0.038048304,-0.009773254,88.83923521
0,7.311892033,7.311892033,0
2.522355769,-1.391268791,-0.322845459,76.73141453
0,2.284454346,2.284454346,0
0.48034475,2.62842305,2.394201756,10.40041261
0,0.493205547,0.493205547,0
1.588752036,-0.898586705,-1.222239971,47.24605369
2.258966339,0.121306194,0.951695204,14.6030204
0.300663899,0.628015745,0.71131897,62.52186542
0.158671662,0.120517668,0.115814209,89.86157543
0,5.815693378,5.815693378,0
0.176461874,0.136604414,0.158782959,87.96242793
0.326728908,0.009991455,-0.016197205,45.65173363
0.429063744,0.088465039,-0.052703857,82.01435314
3.616206317,2.815016828,4.690246582,87.96678692
0.370771132,-0.11441239,-0.124420166,89.13200674
2.607805698,0.908826815,0.833207637,82.88224859
2.765021539,0.392992194,1.097774982,87.34411084
3.20015467,1.366806618,2.049436569,80.17311611
4.12610421,-1.589052285,-0.535104096,87.02084813
0.611445833,0.173529033,0.147270203,89.81010631
3.135626308,-0.20085956,0,17.00891598
0.198175775,0.034206106,0.041152954,65.20556322
0.355418286,-0.133507632,-0.018737793,84.3689505
4.837393177,4.198161335,5.928224564,55.24633495
1.263636709,-1.733174013,-1.790862918,20.27561988
0.267425419,0.011632327,-0.020126343,88.34084784
0.450026366,0.585441427,0.696037292,37.2818211
3.553279707,-3.495667806,-2.104698181,78.57503959
4.373904521,-0.409701212,-0.883568048,62.93669786
1.440786315,-8.169104527,-8.257601738,30.92947656
1.326338717,-5.494169007,-4.994457245,14.79900116
0.491477853,-0.514502809,-0.847137451,41.427575
4.104893283,5.296956527,6.833000183,50.94384921
2.70666463,-0.692837524,-1.042358398,42.20134599
2.535008277,0.183741268,-0.646454215,35.02766353
0.215871595,-0.081306725,-0.036437988,88.88928449
0,-0.670396924,-0.670396924,0
0.416288301,-0.209207558,-0.068191528,89.00213991
0,0,0,0
0.241449329,-0.115653343,-0.079994202,73.28627923
0.669643466,-0.628820118,-0.57624054,22.74606003
1.813090442,0.018208531,-0.007182606,86.44990987
0,-2.473999977,-2.473999977,0
0,-0.01436521,-0.01436521,0
0,0.27406311,0.27406311,0
0.494585118,0.04841948,-0.149490356,42.05873376
